Timestamp;scop_accx;scop_accy;scop_accz;scop_pitchspeed;scop_rollspeed;scop_yawspeed;scop_pitch;scop_roll;scop_yaw
0;2399;2341;97914;67;-75;-10;-10;-12;17081
1091;2112;1982;97795;69;-78;-18;-10;-12;17081
2089;1825;1886;98249;72;-78;-18;-10;-12;17080
3079;2064;1982;98679;77;-75;-16;-10;-12;17080
4080;2280;2150;98655;77;-80;-10;-10;-12;17080
5080;2304;2509;98392;72;-83;-5;-10;-12;17080
6076;2734;2533;98273;72;-80;-2;-10;-12;17080
7076;2184;1958;98225;64;-80;0;-10;-12;17080
8077;2112;2054;98058;64;-80;2;-10;-12;17080
9077;2184;2365;97938;46;-78;5;-10;-12;17080
10078;1993;2150;98296;46;-72;7;-10;-12;17080
11078;1921;2054;98774;51;-67;10;-10;-12;17080
12093;1418;2293;98655;59;-70;10;-10;-12;17080
13077;1873;2700;98058;67;-78;7;-10;-12;17080
14078;2064;2605;97771;67;-80;7;-10;-12;17080
15078;1993;2126;98010;77;-80;13;-10;-12;17080
16079;1921;1862;98296;77;-80;13;-10;-12;17081
17079;1634;2174;98392;80;-80;10;-10;-12;17081
18075;1442;2437;98273;80;-83;13;-10;-12;17081
19075;1610;2102;98225;88;-86;13;-10;-12;17081
20076;1921;1815;98488;88;-91;10;-10;-13;17081
21077;2088;1862;98511;93;-94;7;-10;-13;17081
22090;2423;2030;98320;93;-94;5;-10;-13;17081
23080;2328;2198;97771;88;-88;5;-9;-13;17081
24075;1610;2198;97747;88;-83;5;-9;-13;17081
25075;1418;2437;98249;72;-78;2;-9;-13;17081
26076;2017;2652;98296;72;-78;5;-9;-13;17081
27076;1849;2389;98249;77;-80;10;-9;-13;17081
28077;1897;2365;97914;77;-86;10;-9;-13;17081
29078;2447;2365;98010;77;-88;5;-9;-13;17081
30079;2040;2413;98464;77;-86;5;-9;-13;17081
31079;2471;2748;97628;69;-83;7;-9;-13;17081
32093;2352;2796;97221;61;-80;7;-9;-13;17081
33078;1299;2581;98010;56;-78;10;-9;-13;17081
34079;1466;2245;98989;56;-78;10;-9;-13;17081
35080;2232;1958;99061;64;-78;2;-9;-13;17081
36080;2734;2437;98416;64;-83;-5;-9;-13;17081
37075;2447;2676;97890;75;-88;-10;-9;-13;17081
38075;1586;2030;97890;75;-88;-13;-9;-13;17081
39076;1538;2126;98703;69;-86;-16;-9;-13;17081
40076;2088;2676;98726;69;-86;-16;-9;-14;17081
41078;2184;2509;98034;64;-86;-13;-9;-14;17081
42089;2232;2245;97890;64;-86;-10;-9;-14;17081
43079;1825;2102;98535;67;-86;-10;-9;-14;17081
44079;2710;2317;98870;67;-88;-13;-9;-14;17081
45075;2758;2413;98010;61;-91;-13;-9;-14;17081
46075;1825;2269;97436;61;-91;-10;-9;-14;17081
47077;2040;2317;97699;54;-88;-2;-9;-14;17081
48078;1562;2533;98129;54;-88;2;-9;-14;17081
49079;1897;2892;99085;48;-91;2;-9;-14;17081
50080;2639;2940;99037;48;-88;-2;-9;-14;17081
51076;2160;2557;97962;56;-83;-8;-9;-14;17081
52093;1945;2365;97914;61;-78;-8;-9;-14;17081
53079;1945;2389;98010;64;-78;-5;-9;-14;17081
54080;1753;2365;97747;64;-80;-2;-9;-14;17081
55076;2112;2461;97986;64;-80;0;-9;-14;17081
56076;1753;2461;98249;64;-80;0;-9;-14;17081
57078;1682;2652;98488;67;-83;-2;-9;-14;17080
58079;2208;2485;98464;67;-83;-8;-9;-14;17080
59075;2352;2293;98273;75;-83;-8;-9;-15;17080
60075;1993;2293;97819;75;-80;-2;-9;-15;17080
61077;2040;2245;97604;72;-80;-2;-9;-15;17080
62078;2208;2174;97986;72;-80;-5;-9;-15;17080
63091;2017;2174;98249;67;-80;-10;-9;-15;17080
64077;2064;2628;98583;67;-80;-8;-9;-15;17080
65077;2112;3059;98703;67;-75;0;-9;-15;17080
66078;1969;2557;98296;67;-67;5;-9;-15;17080
67078;1873;1791;97747;69;-59;5;-9;-15;17080
68079;2088;1910;97556;69;-57;7;-9;-14;17080
69079;1921;2222;97628;64;-54;13;-9;-14;17080
70075;2328;2652;97962;64;-51;15;-9;-14;17080
71075;1993;2293;98535;56;-51;15;-9;-14;17081
72076;1705;2054;98750;56;-49;7;-9;-14;17081
73119;1993;2413;97938;69;-49;2;-9;-14;17081
74077;2017;2341;97938;69;-49;2;-9;-14;17081
75078;2591;2293;97723;72;-51;2;-9;-13;17081
76079;2064;1982;97747;72;-51;2;-9;-13;17081
77079;2184;1958;97651;64;-51;-2;-9;-13;17081
78080;2495;2581;98392;64;-54;-2;-9;-13;17081
79080;1729;2796;98989;59;-59;2;-9;-13;17081
80076;2088;2413;98679;59;-67;2;-9;-13;17081
81076;2256;2102;98416;56;-70;-2;-9;-13;17081
82078;1849;2174;97962;56;-78;-2;-9;-13;17081
83093;2017;2030;97389;59;-80;2;-9;-13;17081
84078;2088;1791;97436;59;-75;7;-9;-13;17081
85079;2256;2126;98225;61;-64;5;-9;-13;17081
86080;2184;2581;98559;61;-54;0;-9;-13;17081
87080;1921;2676;98344;67;-49;-5;-9;-13;17081
88075;1586;2581;98296;67;-49;-8;-9;-12;17081
89076;1323;2245;98177;64;-54;-5;-9;-12;17081
90077;2280;2030;97866;64;-59;0;-9;-12;17081
91077;2710;2126;97819;75;-59;5;-9;-12;17081
92079;2184;2054;97962;75;-54;13;-9;-12;17081
93079;1753;2102;98464;80;-51;15;-9;-12;17081
94093;1825;2198;99013;80;-51;15;-9;-12;17081
95091;2543;2269;98965;80;-54;13;-9;-12;17081
96075;2423;2245;98368;80;-57;5;-9;-12;17081
97076;2567;2030;97675;72;-59;0;-9;-11;17081
98077;2112;1575;97747;72;-62;-2;-8;-11;17081
99078;1658;1503;98177;69;-64;-2;-8;-11;17081
100078;2878;1910;98655;69;-70;-2;-8;-11;17081
101079;2519;2222;98750;64;-75;-2;-9;-11;17081
102079;1753;2245;98655;64;-80;-5;-9;-11;17081
103075;2088;2293;98846;67;-86;-2;-9;-11;17081
104075;1993;2174;98559;67;-91;0;-9;-12;17081
105076;2471;1767;97747;64;-91;2;-9;-12;17081
106091;2663;1743;97580;61;-86;0;-9;-12;17081
107090;1849;1791;98201;59;-75;0;-9;-12;17081
108075;2352;2126;98488;59;-70;0;-9;-12;17081
109076;2088;2557;98798;54;-72;5;-9;-12;17081
110077;1801;2461;99013;54;-75;7;-9;-12;17081
111078;2256;1958;98511;64;-72;2;-9;-12;17081
112079;1634;1719;97914;64;-70;0;-9;-12;17081
113076;1347;2006;97556;80;-67;-2;-9;-12;17081
114076;1705;1695;97795;80;-62;-2;-9;-12;17081
115078;2160;1910;98703;83;-57;0;-9;-12;17081
116079;1921;2293;99252;77;-59;0;-9;-12;17081
117075;1562;2030;98726;75;-64;2;-9;-12;17081
118091;1873;2198;97890;77;-75;0;-9;-12;17081
119077;1921;1982;97819;83;-86;0;-9;-12;17081
120077;2758;1862;98201;83;-94;2;-9;-12;17081
121079;2878;1671;98129;77;-94;5;-9;-12;17081
122080;2256;1432;98081;69;-91;5;-9;-12;17081
123076;2447;2150;98440;64;-86;7;-9;-12;17081
124076;1729;2533;98177;64;-80;7;-9;-12;17081
125078;1753;2389;97914;67;-80;10;-9;-12;17081
126079;2064;2269;98034;77;-78;15;-9;-12;17081
127075;1562;1958;98153;83;-78;18;-9;-12;17081
128075;2304;1791;97890;83;-72;13;-9;-13;17081
129091;2352;1695;98010;83;-64;7;-8;-12;17081
130080;1921;1623;98750;77;-64;5;-8;-12;17082
131075;2352;1886;99013;69;-72;0;-8;-12;17082
132076;1658;1934;98822;69;-78;0;-8;-12;17082
133077;1729;1886;98416;77;-78;0;-8;-13;17082
134077;1897;1336;97866;85;-70;0;-8;-13;17082
135079;1873;1384;97914;93;-62;-2;-8;-13;17082
136079;2304;1815;98368;85;-59;-10;-8;-12;17081
137080;2615;1647;98320;77;-59;-13;-8;-12;17081
138079;2710;2054;98488;69;-59;-10;-8;-12;17081
139075;1658;2198;98798;67;-59;-8;-8;-12;17081
140090;1394;2054;98559;67;-64;-5;-8;-12;17081
141079;1562;1623;98273;67;-70;-2;-8;-12;17081
142075;2280;1599;98034;67;-70;-2;-8;-12;17081
143075;2830;1551;97436;61;-62;-5;-8;-12;17081
144076;2998;1336;97699;59;-57;-8;-8;-12;17081
145077;3285;1719;98774;51;-57;-10;-8;-12;17081
146078;2184;1886;99109;46;-59;-13;-9;-12;17081
147078;1658;2078;98798;48;-62;-13;-9;-12;17081
148079;1634;2437;98368;51;-59;-13;-9;-12;17081
149079;1203;2054;97460;54;-54;-16;-9;-12;17081
150093;1921;1527;97460;51;-49;-16;-9;-12;17081
151079;2639;1671;98511;54;-49;-13;-9;-12;17081
152093;2423;1982;98607;61;-54;-5;-9;-12;17081
153077;2352;2054;98344;64;-62;-2;-10;-12;17081
154078;1490;1982;98368;69;-67;-2;-10;-12;17080
155079;820;1886;98655;77;-67;-5;-10;-12;17080
156080;1777;1599;98583;80;-64;-10;-10;-12;17080
157080;3117;1910;97866;83;-62;-13;-9;-12;17080
158075;3213;2174;97699;85;-62;-10;-9;-12;17080
159076;2710;1743;98416;80;-62;-5;-9;-12;17080
160077;2399;1575;99252;72;-67;-5;-9;-12;17080
161077;1777;1815;99085;67;-72;-5;-9;-12;17080
162078;1490;1839;98296;64;-75;-8;-9;-12;17080
163089;1897;1886;97580;61;-75;-8;-10;-12;17080
164079;2304;2006;97771;61;-70;-8;-10;-12;17080
165080;2687;1815;98559;64;-64;-2;-10;-12;17080
166075;2806;1456;98535;67;-62;0;-10;-12;17080
167076;2328;1599;98153;67;-59;2;-10;-12;17080
168076;1849;2293;97962;67;-57;5;-10;-12;17080
169077;1059;2245;98058;67;-54;5;-10;-12;17080
170077;1179;1910;98392;72;-54;5;-10;-12;17080
171079;1969;2030;98392;77;-54;2;-10;-12;17080
172079;1945;2054;97962;83;-54;2;-10;-12;17080
173075;2806;1862;98153;91;-57;0;-10;-12;17080
174091;2663;1599;98798;93;-57;-5;-10;-11;17080
175075;2136;1934;98798;93;-59;-5;-10;-11;17080
176077;2280;2293;98177;88;-62;-2;-9;-11;17080
177077;1418;2102;97795;85;-64;-2;-9;-11;17080
178079;1897;1767;97866;85;-64;-2;-9;-11;17080
179080;2471;1360;98225;85;-64;0;-9;-11;17080
180076;2639;1432;98631;85;-64;2;-9;-11;17080
181076;3093;2174;98344;83;-64;7;-9;-11;17080
182078;2328;1910;97914;77;-64;10;-9;-11;17080
183079;2136;1719;98225;75;-62;10;-9;-11;17080
184088;1610;2150;98440;75;-62;7;-9;-11;17080
185078;1801;2245;98225;80;-62;7;-9;-11;17080
186079;2806;2078;98129;83;-62;13;-9;-11;17080
187080;2471;1599;98559;85;-59;13;-9;-11;17080
188076;2806;1575;98703;83;-59;10;-9;-11;17080
189076;2543;1551;98201;77;-62;10;-9;-11;17081
190078;2088;1934;97843;72;-59;13;-9;-11;17081
191079;2304;2150;98010;69;-57;13;-9;-11;17081
192076;1849;1934;98488;69;-54;13;-9;-11;17081
193077;1777;1815;99037;72;-54;10;-9;-11;17081
194090;2375;1743;99013;75;-62;10;-9;-11;17081
195075;2806;1839;98249;72;-67;7;-9;-11;17081
196080;2519;1839;98177;67;-70;2;-9;-11;17081
197076;1897;1839;98392;67;-72;-2;-9;-11;17081
198076;2160;1982;98440;67;-78;-8;-9;-11;17081
199077;2136;2102;98368;64;-83;-5;-9;-11;17081
200077;1705;2054;98249;64;-83;-5;-9;-11;17081
201078;1897;2030;98798;64;-80;-2;-9;-11;17081
202079;2352;1886;99133;61;-80;-2;-9;-11;17081
203080;2663;1815;98416;59;-80;-5;-9;-12;17081
204091;2567;1958;97556;59;-83;-8;-10;-12;17081
205075;2160;1934;97460;61;-86;-5;-10;-12;17081
206076;1562;2030;98177;67;-88;-5;-10;-12;17081
207076;1036;2030;98631;72;-88;-2;-10;-12;17081
208077;1227;2102;98416;77;-80;0;-10;-12;17081
209078;1370;1982;98105;80;-75;2;-10;-12;17081
210079;1777;1910;97938;83;-72;0;-10;-12;17081
211079;2591;1958;97962;83;-72;-5;-10;-12;17081
212075;2352;1958;98081;80;-70;-5;-10;-12;17081
213075;2280;2293;98440;77;-64;0;-10;-12;17081
214091;1945;2078;98320;83;-62;7;-9;-12;17081
215076;1705;1719;98416;88;-64;15;-9;-12;17081
216076;2495;1958;98559;88;-70;23;-9;-12;17081
217078;2112;2102;98105;83;-78;23;-9;-12;17081
218078;2399;1982;97890;77;-80;21;-9;-12;17081
219079;2878;2102;98153;75;-80;23;-9;-12;17081
220079;1873;1982;98464;75;-80;23;-9;-12;17081
221075;1801;1982;98105;75;-78;18;-9;-12;17081
222076;1849;2078;97866;69;-75;13;-9;-12;17082
223077;1849;1767;98225;64;-70;13;-9;-12;17082
224088;2256;1527;98344;61;-67;13;-9;-12;17082
225079;2495;1886;98105;64;-70;10;-9;-12;17082
226079;2639;2365;97843;64;-67;5;-9;-12;17082
227075;1945;2269;97986;61;-64;2;-9;-12;17082
228080;1155;1839;98535;64;-62;7;-9;-12;17082
229076;1203;1791;98488;67;-59;15;-9;-12;17082
230076;1418;2150;97795;69;-57;18;-9;-12;17082
231077;1586;2293;97604;72;-57;10;-9;-12;17082
232078;1777;1982;98392;69;-59;2;-9;-12;17082
233079;2352;2054;98989;67;-64;2;-9;-12;17082
234079;2232;2078;98249;61;-70;2;-9;-12;17082
235091;1849;1886;97460;56;-70;-2;-9;-12;17082
236076;1753;1934;97532;54;-72;-10;-9;-12;17082
237076;1203;1934;98129;54;-70;-16;-10;-12;17082
238077;1849;2006;98559;56;-70;-16;-10;-12;17082
239077;2304;2006;98249;56;-70;-10;-10;-12;17082
240079;1945;1839;98201;54;-70;-5;-10;-12;17082
241079;1945;1934;98440;48;-70;-2;-10;-12;17082
242076;1418;1982;98153;48;-72;-5;-10;-12;17082
243076;1275;2054;97771;48;-75;-10;-10;-12;17082
244078;1897;2413;97890;51;-75;-18;-10;-12;17082
245079;1610;2078;98368;59;-72;-21;-10;-12;17082
246091;1323;1767;98870;69;-70;-18;-10;-12;17081
247076;1777;1910;99037;75;-70;-16;-10;-12;17081
248077;1777;2078;98416;72;-75;-16;-10;-12;17081
249079;2399;2245;97580;67;-78;-10;-10;-12;17081
250079;2064;1934;97795;67;-75;-5;-10;-12;17081
251076;1514;1862;98249;75;-70;-2;-10;-12;17081
252077;2280;2389;98129;80;-64;-2;-10;-12;17081
253078;1945;2413;98273;83;-70;-10;-10;-12;17081
254079;2184;1815;98631;83;-78;-16;-10;-12;17081
255075;2184;1815;98631;77;-83;-13;-10;-12;17081
256092;2399;1623;98081;75;-86;-13;-10;-12;17081
257077;2040;2030;97484;69;-83;-16;-10;-12;17081
258078;1993;2509;97532;72;-83;-16;-10;-12;17081
259080;2352;2341;98249;77;-86;-16;-10;-12;17080
260079;2017;1958;99133;85;-88;-13;-9;-12;17080
261080;1777;2222;98129;96;-88;-13;-9;-12;17080
262080;1753;2174;97962;93;-86;-18;-9;-12;17080
263076;2280;2150;97938;83;-88;-21;-9;-12;17080
264076;2639;2317;97651;75;-94;-21;-9;-12;17080
265077;2256;2605;97866;72;-91;-16;-9;-13;17080
266132;1705;2269;98559;67;-80;-10;-9;-13;17080
267079;2328;1839;99133;67;-70;-8;-9;-13;17080
268080;2639;1982;98870;64;-62;-8;-9;-13;17080
269075;2232;2581;97675;59;-64;-8;-9;-12;17080
270075;2088;2605;97245;59;-70;-8;-9;-12;17080
271076;1466;1767;98010;61;-70;-8;-9;-12;17080
272077;964;1623;99109;67;-75;-8;-9;-12;17080
273078;1753;2222;98941;72;-80;-5;-9;-13;17079
274078;2136;2509;97843;72;-86;-2;-9;-13;17079
275079;2232;2509;98081;69;-86;-5;-9;-13;17079
276079;2208;2461;98535;67;-80;-8;-9;-13;17079
277093;2064;2150;98416;64;-80;-8;-9;-13;17079
278077;2328;1862;98034;61;-80;-5;-9;-13;17079
279078;1897;1767;97365;64;-86;0;-9;-13;17079
280078;1490;1934;98034;67;-86;2;-9;-13;17079
281080;1777;2317;99156;61;-78;0;-9;-13;17079
282080;2232;2796;98631;56;-67;0;-9;-13;17079
283076;2471;3227;97938;54;-67;2;-9;-13;17079
284076;1610;2628;97866;54;-75;7;-9;-13;17079
285077;1251;1767;98273;54;-75;10;-10;-13;17079
286076;1538;1623;98822;56;-72;5;-10;-13;17079
287078;1658;2293;98368;61;-72;2;-10;-13;17079
288109;2256;2820;97819;64;-72;5;-10;-13;17080
289078;1945;2509;98249;64;-75;2;-10;-13;17080
290079;1777;2078;99109;64;-75;0;-10;-13;17080
291080;2184;2078;99180;67;-80;-2;-10;-13;17080
292075;2208;2365;97986;69;-83;-2;-10;-13;17080
293076;2280;2222;96959;69;-88;2;-9;-13;17080
294076;1945;1958;97556;64;-91;2;-9;-13;17080
295077;1825;1958;98989;59;-94;0;-10;-13;17080
296078;1993;2509;99395;54;-94;-2;-10;-13;17080
297079;1993;2652;98368;54;-94;0;-10;-13;17080
298079;2088;2389;97938;56;-91;5;-10;-13;17080
299080;1442;2389;98034;56;-86;10;-10;-14;17080
300092;1107;2150;97699;56;-83;10;-10;-14;17080
301076;2064;2317;97723;61;-80;13;-10;-14;17080
302077;1729;2509;98058;69;-80;13;-10;-14;17080
303077;1323;2222;98535;77;-78;10;-10;-14;17080
304078;1873;2174;98918;88;-75;10;-9;-14;17080
305078;2017;2509;98559;93;-75;13;-9;-14;17080
306079;2208;2940;97938;91;-78;13;-9;-14;17080
307080;2280;2844;97532;85;-83;10;-9;-14;17080
308076;2256;2365;97747;77;-86;10;-9;-14;17080
309077;2160;2150;98511;75;-83;10;-9;-14;17080
310079;1993;2317;98607;80;-83;13;-9;-14;17080
311093;1825;2437;98440;80;-83;15;-9;-14;17080
312079;1682;2461;98488;72;-86;13;-9;-14;17081
313075;1777;2413;98105;61;-86;10;-9;-14;17081
314075;1705;2389;97675;61;-80;13;-9;-14;17081
315077;1538;2437;97747;64;-78;13;-9;-14;17081
316077;1347;2054;98153;64;-72;13;-8;-14;17081
317079;1825;1886;98535;59;-70;13;-9;-14;17081
318079;2184;2293;98464;56;-70;13;-9;-14;17081
319076;1873;2581;98058;54;-67;13;-9;-14;17081
320076;1729;2485;98153;51;-64;13;-9;-14;17081
321089;1418;2126;98392;48;-64;15;-9;-13;17081
322077;1131;1958;97938;54;-64;15;-9;-13;17081
323077;1945;2054;97460;59;-72;10;-9;-13;17081
324079;2112;2198;97914;61;-78;7;-9;-13;17081
325080;1825;2461;98870;61;-75;7;-9;-13;17081
326075;2256;2293;99300;61;-72;10;-9;-13;17081
327080;2208;2461;98655;61;-70;7;-9;-13;17082
328075;1945;2389;97580;61;-70;5;-9;-13;17082
329075;1610;1599;97651;56;-64;2;-9;-13;17082
330076;1323;1815;98368;54;-62;-2;-9;-13;17082
331096;1921;2605;98511;56;-62;-5;-9;-13;17082
332076;1873;2700;98177;59;-64;-5;-9;-13;17081
333076;1514;2413;98225;59;-70;0;-9;-13;17081
334077;2184;1934;98822;61;-72;2;-9;-13;17082
335077;1753;1791;98870;61;-75;2;-9;-13;17082
336079;1586;2461;98105;67;-80;0;-9;-13;17082
337078;2328;2700;97460;72;-80;-2;-9;-13;17082
338080;1562;2006;97771;72;-72;-2;-9;-13;17081
339080;1849;1815;98535;64;-62;-2;-9;-13;17081
340075;2304;2293;98535;61;-59;2;-9;-12;17081
341075;1514;2652;97843;61;-62;2;-9;-12;17081
342219;1658;2365;97819;59;-62;0;-9;-12;17081
343075;1921;2054;98129;61;-62;5;-9;-12;17082
344080;2017;1958;98344;67;-62;13;-9;-12;17082
345076;1849;2078;98129;69;-62;13;-9;-12;17082
346076;1849;1886;97771;72;-64;7;-9;-12;17082
347077;2304;1599;98225;72;-67;5;-8;-12;17082
348077;1897;1791;99061;69;-67;5;-8;-12;17082
349078;1753;2030;99061;67;-67;5;-8;-12;17082
350079;1610;2317;98201;67;-72;2;-8;-12;17082
351080;1275;2126;97628;67;-70;2;-8;-12;17082
352075;1729;1839;97962;67;-67;2;-8;-12;17082
353090;1969;1910;98607;64;-67;0;-8;-12;17082
354088;2256;2293;98488;67;-72;-2;-8;-12;17082
355079;2017;2150;98034;67;-75;-8;-8;-12;17082
356080;1394;1910;97843;64;-78;-13;-8;-12;17082
357075;1873;1815;98273;61;-78;-16;-8;-12;17082
358076;1969;1886;98488;59;-80;-13;-8;-12;17082
359076;1634;2293;98034;56;-80;-10;-8;-12;17081
360077;2064;2389;97819;54;-72;-10;-9;-12;17081
361077;1873;2126;98225;51;-67;-16;-9;-12;17081
362078;1562;2126;98989;54;-64;-18;-9;-12;17081
363078;1610;2198;99109;59;-67;-16;-9;-12;17081
364096;1610;1910;98344;59;-72;-10;-9;-12;17081
365093;1825;1934;97795;59;-75;-2;-9;-12;17081
366077;2184;2150;97866;61;-78;-8;-9;-12;17081
367078;1921;2078;97962;72;-78;-13;-9;-12;17081
368079;2064;2126;98296;80;-75;-16;-9;-12;17081
369080;1705;2078;98535;83;-72;-13;-9;-12;17081
370080;1634;2030;98583;80;-70;-8;-9;-12;17081
371076;2184;2245;98440;72;-67;-5;-8;-12;17081
372077;1921;2389;98081;67;-70;-5;-8;-11;17081
373079;2064;2293;98129;64;-75;-8;-8;-11;17081
374079;1969;2078;98440;61;-80;-8;-8;-12;17081
375076;1945;2078;98440;59;-83;-10;-9;-12;17080
376088;2064;2078;98296;56;-80;-10;-9;-12;17080
377079;1825;2198;98368;56;-75;-10;-9;-12;17080
378075;1610;2341;98153;56;-72;-8;-9;-12;17080
379076;1777;2317;98249;56;-72;-8;-9;-12;17080
380077;1945;2533;98535;51;-78;-8;-9;-12;17080
381079;2184;2533;98201;54;-80;-8;-9;-12;17080
382080;2017;2222;98105;64;-80;-5;-9;-12;17080
383076;1466;2078;98488;77;-75;0;-9;-12;17080
384076;1849;1934;98655;85;-72;0;-9;-12;17080
385078;2256;1743;98392;91;-75;-2;-9;-12;17080
386092;1801;1719;97962;91;-78;-2;-8;-12;17080
387078;1777;1934;98058;93;-83;-2;-8;-12;17080
388079;2375;1934;98368;93;-86;2;-8;-12;17080
389075;2375;1934;98440;93;-88;5;-8;-12;17080
390075;2615;2198;98440;88;-86;5;-8;-12;17080
391076;2399;1934;98320;85;-86;5;-8;-12;17080
392076;2040;1791;98177;83;-88;0;-8;-12;17080
393077;2064;1982;98392;75;-91;-5;-8;-12;17080
394077;1921;2006;98655;67;-88;-10;-8;-12;17080
395078;2471;2078;98296;61;-86;-10;-8;-12;17080
396078;2352;2126;97843;61;-80;-10;-8;-12;17080
397091;2064;1886;97962;61;-75;-5;-8;-12;17080
398076;2304;1791;98631;61;-70;5;-8;-12;17080
399077;2184;1958;98894;61;-64;13;-8;-12;17080
400078;1897;2269;98225;67;-59;15;-8;-12;17080
401079;1466;1910;97843;69;-57;10;-8;-12;17080
402075;1323;1599;97938;69;-57;5;-8;-12;17080
403075;1873;2078;98105;64;-57;2;-8;-12;17080
404077;2256;2533;98177;64;-59;7;-8;-12;17080
405077;2710;2437;98105;67;-67;10;-8;-12;17080
406078;2280;1791;98249;67;-70;10;-8;-12;17080
407078;1394;1623;98488;61;-67;10;-8;-12;17080
408091;2064;2054;98798;54;-62;7;-8;-12;17080
409076;2088;2245;98440;48;-62;5;-8;-12;17081
410076;1801;1886;97819;51;-67;2;-8;-12;17081
411077;1897;1551;98081;54;-70;0;-8;-12;17081
412078;1682;1456;98798;56;-67;-2;-8;-12;17081
413079;2280;2030;98631;56;-67;0;-9;-12;17081
414080;2495;2413;97651;61;-72;5;-9;-12;17081
415075;2136;2198;97628;59;-75;7;-9;-12;17081
416075;1825;1982;98464;56;-72;13;-9;-12;17081
417077;1610;1791;98989;59;-70;13;-9;-12;17081
418096;1969;1910;98631;69;-72;13;-9;-12;17081
419076;2112;1982;97771;83;-72;15;-9;-12;17081
420076;2136;1886;97747;88;-67;15;-9;-12;17081
421078;2280;1767;98464;88;-59;13;-9;-12;17081
422079;2806;2102;98631;85;-59;7;-8;-12;17081
423075;2615;2557;97986;85;-57;5;-8;-12;17081
424075;1729;2174;97556;88;-59;13;-8;-12;17081
425076;1538;1623;98105;85;-62;15;-8;-12;17081
426076;1969;1647;98703;85;-62;13;-8;-12;17081
427077;3213;2078;98535;91;-59;7;-8;-12;17081
428091;3213;2222;98105;88;-54;5;-8;-11;17081
429092;2304;1910;98105;80;-49;2;-8;-11;17081
430076;2710;1551;98822;72;-46;0;-8;-11;17081
431077;1969;1647;98989;67;-57;2;-8;-11;17081
432077;1729;2126;97986;67;-64;2;-8;-11;17081
433079;2399;2126;97436;69;-72;0;-8;-11;17081
434078;1658;1647;97962;69;-67;-5;-8;-11;17081
435080;2423;1815;98392;67;-62;-5;-8;-11;17081
436080;3093;1934;98464;64;-59;-2;-8;-11;17081
437075;2040;1791;98416;64;-57;0;-8;-11;17081
438076;1682;1862;98225;61;-59;-2;-8;-11;17081
439088;1634;1575;98535;56;-62;-2;-8;-11;17081
440079;1993;1575;98679;61;-62;-5;-8;-11;17081
441075;2495;2198;98034;72;-59;-8;-8;-11;17081
442076;2040;2413;97771;75;-51;-5;-8;-11;17081
443078;2280;2222;98535;72;-49;-10;-8;-11;17081
444079;2615;2222;99324;72;-54;-16;-9;-11;17081
445075;1777;2126;99180;69;-64;-18;-9;-11;17081
446075;1347;1719;98010;69;-70;-16;-9;-11;17081
447077;1849;1360;97699;67;-70;-16;-9;-11;17081
448077;1969;1503;98488;67;-70;-13;-9;-11;17081
449079;2710;1839;98607;67;-72;-13;-9;-11;17081
450088;3093;1791;98344;69;-72;-13;-9;-11;17081
451078;1873;1862;98344;64;-72;-13;-9;-11;17081
452076;1442;1743;98703;56;-72;-8;-9;-11;17080
453076;2184;1767;98535;54;-72;-5;-9;-11;17080
454078;2088;2078;97795;56;-72;-10;-9;-11;17080
455079;2064;1958;97723;61;-70;-13;-9;-11;17080
456075;2471;1767;98464;67;-67;-13;-9;-11;17080
457075;2352;1791;99156;72;-64;-13;-9;-11;17080
458075;2854;2222;98750;75;-64;-10;-9;-11;17080
459075;2663;2605;97914;75;-67;-8;-9;-11;17080
460092;1705;2269;98153;75;-64;-10;-9;-11;17080
461076;1729;1934;98583;75;-59;-8;-9;-11;17080
462078;1993;2054;98320;77;-59;-2;-9;-11;17080
463078;2591;2341;97914;80;-62;0;-9;-11;17080
464079;2782;2150;97914;83;-67;0;-9;-11;17080
465079;1849;1647;98392;80;-70;-5;-9;-11;17080
466075;1873;1599;98750;80;-67;-10;-9;-11;17080
467075;1969;1958;98296;77;-67;-10;-9;-11;17080
468076;1705;2245;97651;77;-70;-5;-9;-11;17080
469077;1801;2198;97651;77;-78;-2;-9;-11;17080
470091;1705;2102;98177;75;-80;-2;-9;-11;17080
471076;2304;1886;98726;75;-80;-2;-9;-11;17080
472078;3093;2102;98703;80;-78;0;-9;-11;17080
473079;2471;2293;98010;75;-80;7;-9;-11;17080
474079;1873;1982;97819;69;-83;13;-9;-11;17080
475075;1921;2030;98535;64;-83;15;-9;-11;17080
476075;1490;2317;98488;64;-75;18;-9;-11;17080
477076;1993;2269;97962;64;-64;21;-9;-11;17080
478076;2543;2006;98153;72;-64;21;-9;-11;17080
479077;1969;1456;98511;80;-64;21;-9;-11;17080
480077;2136;1336;98655;83;-70;21;-9;-11;17080
481113;2352;1360;98392;83;-78;18;-9;-11;17081
482077;1969;1432;98153;77;-80;15;-9;-12;17081
483077;1777;1743;98129;75;-78;13;-9;-12;17081
484078;1682;1862;98058;75;-72;10;-9;-12;17081
485078;1873;2126;98344;75;-70;5;-9;-12;17081
486079;2160;2174;98511;75;-70;2;-9;-12;17081
487080;2256;1815;98225;75;-72;2;-9;-12;17081
488075;1801;1551;97914;72;-78;2;-9;-12;17081
489075;1897;1958;97843;64;-80;5;-9;-12;17081
490076;2112;1934;98201;59;-80;5;-9;-12;17081
491076;1897;1839;98559;56;-75;0;-9;-12;17081
492096;2256;1862;98703;56;-72;-2;-9;-12;17081
493076;2160;1982;98726;61;-70;-5;-9;-12;17081
494076;2328;2150;98559;64;-64;-10;-9;-12;17081
495077;2160;2030;98368;64;-64;-13;-9;-12;17081
496077;1777;2054;98177;59;-62;-13;-9;-12;17081
497078;1753;1982;98201;56;-59;-10;-9;-12;17081
498078;1849;2030;98535;54;-59;-10;-9;-12;17081
499079;1921;2150;98894;61;-59;-10;-9;-12;17080
500079;2208;2293;99061;75;-59;-8;-9;-12;17080
501075;2304;2054;98750;80;-62;-8;-9;-12;17080
502075;2734;1958;98010;80;-70;-10;-9;-12;17080
503090;2471;1886;97675;77;-75;-13;-9;-12;17080
504091;1203;1910;97962;72;-78;-10;-9;-12;17080
505075;1921;2222;98559;69;-78;0;-9;-12;17080
506077;1801;2245;98870;67;-78;2;-9;-12;17080
507077;1514;2437;98344;67;-78;5;-9;-12;17080
508079;2447;2341;98177;67;-80;5;-9;-12;17080
509080;2112;1910;98440;69;-88;0;-9;-12;17080
510076;1849;1839;98105;72;-91;0;-9;-12;17080
511076;1729;1743;97986;72;-86;-2;-9;-12;17080
512078;1418;1910;97747;72;-80;-8;-9;-12;17080
513079;2040;2150;97819;72;-78;-10;-9;-12;17080
514075;2088;2245;98488;72;-75;-13;-9;-12;17080
515091;2136;2269;98655;69;-70;-13;-9;-12;17080
516076;2352;2174;98368;72;-67;-5;-9;-12;17080
517078;2232;2102;97962;77;-67;0;-9;-12;17080
518079;2352;1767;97771;83;-67;0;-9;-12;17080
519075;1873;1886;97914;83;-67;-2;-9;-12;17080
520076;1705;2126;98416;80;-67;-2;-9;-12;17080
521077;1993;2509;98464;77;-72;0;-9;-12;17080
522078;1729;2676;98201;67;-78;2;-9;-12;17080
523079;1634;2222;98273;64;-83;5;-9;-12;17080
524079;2160;2174;98392;64;-86;7;-9;-12;17080
525080;1682;2198;98010;61;-91;10;-9;-12;17080
526092;1945;2174;97341;59;-91;13;-9;-13;17080
527077;2352;2222;97532;61;-83;10;-9;-13;17080
528077;1490;2126;98440;61;-75;7;-9;-13;17080
529078;1873;2269;99013;59;-75;7;-9;-13;17080
530078;1993;2126;99013;59;-75;10;-9;-13;17080
531080;1418;1910;98511;61;-78;15;-9;-13;17080
532075;1634;2078;97747;67;-78;18;-9;-13;17080
533076;1921;2030;97651;67;-75;13;-9;-13;17081
534076;2040;2293;98344;64;-70;10;-9;-13;17081
535077;2280;2557;98655;69;-62;15;-9;-13;17081
536093;2112;2150;98273;75;-57;15;-9;-12;17081
537078;1418;2006;98129;80;-51;13;-9;-12;17081
538078;1610;2006;98631;83;-49;10;-9;-12;17081
539079;2256;1767;98726;80;-51;2;-9;-12;17081
540080;2064;2006;97914;77;-51;2;-9;-12;17081
541075;2256;2198;97460;75;-54;5;-9;-12;17081
542076;2017;2174;98010;67;-57;2;-9;-12;17081
543077;1753;2126;99013;64;-62;0;-9;-12;17081
544077;2495;2174;99085;61;-70;5;-9;-11;17081
545078;1634;2078;98488;61;-72;7;-9;-11;17081
546078;1586;1886;98368;59;-75;7;-9;-11;17081
547093;2160;1767;98320;56;-78;2;-9;-11;17081
548078;1729;1791;98344;54;-78;0;-9;-12;17081
549078;2208;2150;98344;48;-78;5;-9;-12;17081
550079;1466;2365;98296;51;-75;10;-9;-12;17081
551079;1323;2413;98535;51;-72;13;-9;-12;17081
552076;2017;2413;99061;54;-70;7;-9;-12;17081
553076;1466;2102;99037;54;-70;5;-9;-11;17081
554078;1658;1934;98081;54;-70;0;-9;-11;17081
555078;1897;2006;97508;56;-72;-2;-9;-11;17081
556106;1705;1934;97723;59;-78;-2;-9;-11;17081
557091;1753;2174;98320;59;-80;2;-10;-11;17081
558076;1466;2174;98846;64;-78;5;-10;-12;17081
559077;1849;2102;99109;64;-78;5;-10;-12;17081
560078;1538;2293;98607;67;-80;5;-10;-12;17081
561078;1299;2126;97771;72;-80;5;-9;-12;17081
562079;2136;2198;97819;77;-80;2;-9;-12;17081
563079;1921;2198;97819;80;-83;2;-9;-12;17082
564075;2328;2078;97962;77;-86;2;-9;-12;17082
565075;2471;2222;98344;69;-88;5;-9;-12;17082
566076;1538;2126;98535;64;-96;2;-9;-12;17082
567076;2017;2341;98918;69;-102;-2;-9;-12;17082
568093;1801;2293;98631;75;-102;-5;-9;-12;17082
569079;1562;2245;98249;72;-99;-5;-9;-12;17081
570079;2232;2557;97747;69;-94;-2;-9;-12;17081
571076;1610;2413;97293;69;-91;0;-9;-12;17081
572077;1251;2317;97819;69;-91;0;-9;-13;17081
573079;1418;2078;98846;67;-94;-2;-9;-13;17081
574079;1562;2222;99300;64;-94;-5;-9;-13;17081
575075;1705;2652;98249;61;-94;-5;-9;-13;17081
576076;1849;2198;97078;59;-94;-10;-9;-13;17081
577078;1945;1886;97221;56;-88;-8;-9;-13;17081
578078;1729;2102;98153;56;-78;-5;-9;-13;17081
579093;2184;2389;98511;56;-75;0;-9;-13;17081
580079;2232;2389;98177;56;-75;2;-9;-13;17081
581079;1514;2365;98249;59;-78;5;-9;-13;17081
582076;1586;2533;98631;61;-80;5;-9;-13;17081
583077;1514;2485;98726;61;-83;2;-9;-13;17081
584078;2040;2365;98273;61;-88;2;-9;-13;17081
585079;2447;2365;97460;61;-91;5;-9;-13;17081
586075;1442;2317;97341;59;-94;10;-9;-13;17081
587076;1610;2581;98392;59;-88;7;-9;-13;17081
588076;1729;2557;99395;59;-80;5;-9;-13;17082
589076;1514;2676;99180;59;-72;2;-9;-13;17082
590093;1945;3035;98273;61;-70;0;-9;-13;17082
591077;1514;2581;97771;59;-70;-2;-9;-13;17082
592079;1586;1886;97819;59;-70;-5;-9;-13;17081
593079;2112;1599;98034;64;-70;-8;-9;-13;17081
594080;2328;2222;98416;69;-64;-10;-9;-13;17081
595080;2328;2724;98201;75;-64;-8;-9;-13;17081
596076;2064;2317;98105;75;-67;-5;-9;-13;17081
597076;1538;2030;98631;69;-70;-2;-9;-13;17081
598077;1682;2102;98511;67;-75;-5;-9;-13;17081
599077;2710;2150;97604;69;-83;-8;-9;-13;17081
600130;2160;2174;97365;72;-83;-8;-8;-13;17081
601077;1945;2030;97866;72;-78;-5;-8;-13;17081
602079;2471;2126;98798;72;-75;-5;-8;-13;17081
603075;1969;2509;99228;69;-75;-8;-8;-13;17081
604075;2064;2557;98655;64;-78;-8;-8;-13;17081
605076;2040;2198;98392;59;-80;-10;-8;-13;17081
606076;1945;2030;98368;54;-83;-10;-8;-13;17081
607077;2256;2198;98010;51;-83;-8;-8;-13;17081
608077;2256;2102;97651;51;-75;-8;-9;-13;17081
609079;1921;2174;98058;54;-64;-5;-9;-13;17081
610078;1825;2365;98607;51;-57;-5;-9;-13;17081
611089;1777;2365;98918;51;-54;-8;-9;-12;17081
612079;1538;2485;98583;51;-54;-10;-9;-12;17081
613075;1370;2006;97819;54;-59;-13;-9;-12;17081
614075;1490;1551;97651;56;-64;-16;-9;-12;17080
615076;2280;1886;97771;64;-67;-16;-9;-12;17080
616077;2112;1886;98177;75;-64;-13;-9;-12;17080
617078;1945;1982;98416;80;-59;-13;-9;-12;17080
618078;2208;2293;98559;80;-62;-16;-9;-12;17080
619079;1921;2293;98655;80;-64;-16;-9;-12;17080
620079;1945;2245;98416;75;-70;-13;-9;-12;17080
621075;1921;2293;97843;69;-75;-10;-9;-12;17080
622093;2088;2341;97651;64;-80;-10;-9;-12;17080
623077;2352;2126;98129;64;-83;-10;-9;-12;17080
624078;2112;1862;98368;64;-80;-10;-9;-12;17080
625078;1993;1910;98703;64;-75;-8;-9;-12;17080
626079;1897;1934;98822;64;-70;-2;-9;-12;17080
627079;1921;1910;98249;64;-67;0;-9;-12;17080
628075;2017;2174;97651;64;-70;-2;-9;-12;17080
629075;1897;2198;97580;67;-67;-2;-9;-12;17080
630076;2328;2150;97890;67;-62;-2;-9;-12;17080
631076;2352;2126;98464;69;-57;-5;-9;-12;17080
632079;1825;2102;98822;75;-59;-8;-9;-12;17079
633091;1705;2126;98726;75;-59;-2;-9;-12;17079
634075;1873;1982;98416;72;-62;2;-9;-12;17079
635077;2352;1982;98320;72;-62;7;-9;-11;17080
636078;2352;1886;97962;75;-59;10;-9;-11;17080
637080;2088;1958;97460;75;-59;10;-9;-11;17080
638075;2423;2293;98081;77;-62;10;-8;-11;17080
639077;2280;2198;98965;77;-67;10;-8;-11;17080
640077;1777;2245;99085;72;-72;7;-8;-11;17080
641079;1801;2078;98583;72;-78;7;-8;-11;17080
642080;1323;1743;97938;72;-86;13;-8;-11;17080
643089;1705;2054;97699;67;-91;10;-8;-11;17080
644079;2352;2245;97914;61;-94;5;-8;-12;17080
645075;2088;2293;98368;51;-94;0;-9;-12;17080
646076;2208;2078;98368;43;-94;0;-9;-12;17080
647077;2423;1719;98296;40;-91;2;-9;-12;17080
648078;1849;1934;98440;43;-86;7;-9;-12;17080
649079;1490;2174;98296;40;-80;10;-9;-12;17080
650080;2017;2222;98129;46;-80;10;-9;-12;17080
651076;1921;2317;98129;51;-80;2;-9;-12;17080
652077;1394;2245;98081;59;-80;0;-9;-12;17080
653092;1993;2150;98320;64;-75;2;-9;-12;17080
654076;2256;1791;98822;69;-70;5;-9;-12;17080
655076;1777;1767;98750;77;-70;2;-9;-12;17080
656077;1729;2078;98034;80;-70;0;-9;-12;17080
657077;1538;1839;97866;80;-75;0;-9;-12;17080
658078;1873;1767;98392;83;-75;7;-9;-12;17080
659078;2710;1958;98511;83;-75;13;-9;-12;17080
660079;2615;1910;98296;85;-78;15;-9;-12;17080
661079;2567;1910;98296;85;-78;15;-9;-12;17081
662076;2088;2030;98535;77;-75;15;-9;-12;17081
663076;1562;2174;98870;77;-75;15;-9;-12;17081
664088;1945;2198;98058;72;-70;2;-9;-12;17081
665078;1825;2293;98058;72;-70;2;-9;-12;17081
666079;1897;2341;98129;67;-59;10;-9;-12;17081
667079;2112;2030;98129;67;-59;10;-9;-12;17081
668075;1969;1815;98559;69;-57;2;-9;-12;17081
669075;2543;1791;97795;69;-59;0;-9;-12;17081
670076;2495;1934;97843;72;-62;2;-9;-12;17081
671076;1466;1934;97866;75;-62;0;-9;-12;17081
672078;1658;2006;97890;75;-64;-2;-9;-12;17081
673078;2136;2078;98225;80;-67;-5;-9;-12;17081
674093;2854;2222;98129;80;-72;-5;-9;-12;17081
675078;3141;2341;98225;77;-75;-2;-9;-12;17081
676079;2040;2174;98320;75;-78;-2;-8;-12;17081
677080;1777;1839;98105;75;-83;-5;-8;-12;17081
678080;1658;1695;98010;72;-83;-8;-8;-12;17081
679075;1418;1839;97819;69;-80;-10;-8;-12;17081
680075;2447;2030;97890;72;-75;-10;-8;-12;17081
681076;2328;2269;98249;69;-72;-8;-8;-12;17081
682077;2040;2245;98368;64;-72;-5;-8;-12;17081
683079;2256;2222;98535;59;-72;-5;-8;-12;17081
684078;1921;2317;98655;56;-72;-10;-9;-12;17080
685091;1969;2341;98105;54;-70;-10;-9;-12;17080
686080;1849;1815;97962;54;-67;-5;-9;-12;17080
687076;1921;1886;98058;59;-62;-2;-9;-12;17080
688076;2112;2126;98296;64;-57;0;-9;-12;17080
689077;2208;1743;98655;69;-57;-2;-9;-12;17080
690077;2519;1839;98511;72;-57;-2;-9;-12;17080
691079;2543;2030;98225;77;-54;-5;-9;-12;17080
692079;2232;2317;98153;77;-54;-5;-9;-12;17080
693075;1705;2293;98153;77;-54;-5;-9;-12;17080
694075;1729;2030;98034;80;-54;-5;-9;-12;17080
695076;2088;2030;97986;80;-57;-8;-9;-12;17080
696091;2280;2317;98249;80;-62;-8;-9;-11;17080
697075;2543;2293;98607;75;-67;-8;-9;-11;17080
698076;2375;2174;98703;75;-70;-10;-9;-11;17080
699076;1753;2078;98679;77;-72;-10;-9;-11;17080
700078;1825;2030;98177;77;-72;-5;-8;-11;17080
701079;2184;2102;97723;77;-78;2;-8;-11;17080
702075;2112;2054;98081;77;-75;7;-8;-12;17080
703076;2280;2317;98750;75;-67;10;-8;-12;17080
704077;2184;2389;98416;72;-62;7;-8;-11;17080
705077;2136;2150;98249;69;-62;2;-8;-11;17080
706089;2256;1862;98631;67;-62;0;-8;-11;17080
707078;1682;1671;98535;67;-59;0;-8;-11;17080
708079;1586;1862;98416;69;-54;0;-8;-11;17080
709075;2256;2054;98177;69;-54;2;-8;-11;17080
710076;2471;1934;98129;72;-54;5;-8;-11;17080
711077;2543;1982;98344;72;-51;5;-8;-11;17080
712078;2543;1982;98918;69;-51;5;-8;-11;17080
713075;2136;1934;99180;61;-54;2;-8;-11;17080
714075;2112;2293;98344;61;-59;0;-8;-11;17080
715077;1945;2245;97795;61;-67;-5;-8;-11;17080
716077;1873;1910;98105;61;-70;-5;-9;-11;17080
717089;1777;1839;98440;67;-70;0;-9;-11;17080
718079;2017;1815;98870;72;-67;2;-9;-11;17080
719080;2734;1982;99061;72;-70;2;-9;-11;17080
720079;2280;1958;98798;75;-72;0;-9;-11;17080
721080;1873;1862;98535;75;-75;2;-9;-11;17080
722075;1825;1862;98249;72;-72;7;-9;-11;17080
723076;1705;1647;97795;69;-72;13;-9;-11;17080
724076;2040;1503;97628;67;-70;15;-9;-11;17080
725077;2399;1408;97723;72;-67;15;-9;-11;17080
726077;2017;1862;98249;77;-62;10;-9;-11;17080
727079;1969;1958;98918;77;-57;5;-9;-11;17081
728090;2304;1886;98631;83;-62;2;-9;-11;17081
729079;1945;2126;98225;83;-64;10;-8;-11;17081
730075;1801;2054;97938;80;-64;13;-8;-11;17081
731075;1466;2006;97914;75;-59;7;-8;-11;17081
732077;1418;1695;98344;72;-59;2;-8;-10;17081
733077;2280;1839;98750;72;-62;2;-8;-10;17081
734079;2256;1815;98918;72;-64;5;-8;-10;17081
735079;2423;1623;98798;69;-70;10;-8;-10;17081
736080;2304;1575;98296;61;-75;15;-8;-10;17081
737079;1825;1240;97628;61;-80;13;-8;-10;17081
738091;1945;1073;97413;61;-86;7;-9;-11;17081
739075;1753;1432;97604;61;-88;5;-9;-11;17081
740076;1993;1767;98583;64;-86;5;-9;-11;17081
741076;2375;1886;98894;64;-83;2;-9;-11;17081
742078;2567;1982;98273;64;-80;0;-9;-11;17081
743078;2160;1910;97675;61;-78;0;-9;-11;17081
744079;1705;2102;97532;56;-78;0;-9;-11;17081
745079;1490;1910;97962;59;-80;2;-9;-11;17081
746075;1418;1599;98058;64;-78;2;-9;-11;17081
747075;2040;1695;98129;67;-75;0;-9;-11;17081
748076;2112;1886;98511;64;-72;0;-9;-11;17081
749114;2399;2245;98631;64;-72;-2;-9;-11;17081
750077;2639;2245;98058;64;-72;-8;-9;-12;17081
751078;1634;1743;97628;72;-70;-13;-9;-12;17081
752079;1777;1695;97795;75;-67;-13;-9;-12;17081
753079;2112;2222;98105;80;-67;-10;-9;-12;17081
754075;2088;2222;98392;83;-70;-5;-9;-12;17081
755075;2663;2102;98535;80;-75;-5;-9;-12;17081
756092;2519;2150;98201;75;-78;-5;-9;-12;17081
757075;2040;1743;98105;64;-78;-8;-9;-12;17081
758076;2208;1791;97819;56;-80;-8;-9;-12;17081
759190;1897;1695;97484;56;-86;-2;-9;-12;17081
760078;1897;1695;97890;61;-88;5;-10;-12;17081
761079;2112;2030;98440;69;-86;2;-10;-12;17081
762075;1466;1958;98918;69;-83;-5;-10;-12;17081
763075;2112;1958;98726;69;-75;-8;-10;-12;17081
764076;2208;2126;98177;69;-75;-2;-10;-12;17081
765076;1945;2102;97962;72;-75;0;-10;-12;17081
766078;2017;1886;98344;77;-72;0;-10;-12;17081
767079;1466;1719;98559;85;-70;-2;-10;-12;17081
768075;1777;1934;98368;91;-67;-2;-9;-12;17081
769076;2160;2030;98320;88;-64;0;-9;-12;17081
770091;1897;1934;98583;85;-59;0;-9;-12;17081
771076;2758;2078;99013;83;-59;0;-9;-12;17081
772078;2423;2006;98750;83;-62;2;-9;-12;17081
773079;1418;1839;98010;88;-72;2;-9;-12;17081
774075;1993;1767;97866;88;-80;2;-9;-12;17081
775076;2399;1671;98177;88;-83;7;-9;-12;17081
776077;2328;1743;98511;83;-83;7;-9;-12;17081
777078;2663;2006;98464;80;-80;7;-9;-12;17081
778080;2758;2030;97890;77;-78;5;-9;-13;17081
779075;2399;2030;97723;72;-78;7;-9;-13;17081
780077;1897;2245;98225;64;-78;13;-9;-13;17081
781089;1155;2030;98201;59;-72;10;-9;-13;17081
782093;1466;1982;97723;61;-70;7;-9;-13;17081
783077;2040;2269;97866;59;-67;5;-9;-13;17081
784078;2136;2126;98440;51;-59;5;-9;-13;17081
785078;2304;1958;98941;48;-54;7;-9;-13;17081
786079;2040;1934;98535;48;-57;10;-9;-13;17081
787078;1921;2293;97604;48;-59;7;-9;-12;17081
788080;1418;2389;97556;48;-59;2;-9;-12;17081
789079;964;1910;98320;51;-57;-2;-10;-12;17081
790075;1753;1695;98535;59;-57;-2;-10;-12;17081
791075;2160;1671;98296;67;-59;-2;-10;-12;17081
792077;2615;1958;98392;67;-62;-2;-10;-12;17081
793088;2208;2222;98822;69;-67;-5;-10;-12;17081
794092;1179;1791;98870;69;-72;-5;-10;-12;17081
795076;1777;1623;97914;72;-78;-5;-10;-12;17081
796077;1825;1862;97651;72;-78;-5;-10;-12;17081
797077;1873;1982;98129;64;-75;0;-10;-12;17081
798078;2495;1982;98320;59;-70;2;-10;-12;17081
799078;2136;1791;98655;59;-64;2;-10;-12;17081
800079;2519;2126;98559;61;-64;-2;-10;-12;17081
801079;2136;2485;98105;64;-64;-5;-10;-12;17081
802075;1323;2317;97986;64;-64;-2;-10;-12;17081
803075;1658;2222;97938;64;-67;0;-10;-12;17081
804076;1466;2054;97747;69;-64;-5;-10;-12;17081
805091;1873;2222;98081;69;-62;-8;-10;-12;17081
806075;2375;2413;98726;72;-62;-8;-10;-12;17081
807077;2064;1958;99133;75;-64;-2;-10;-12;17081
808077;2184;1862;98679;75;-70;0;-10;-12;17081
809078;2040;2222;97819;72;-70;0;-10;-12;17081
810078;1777;2102;97556;67;-72;-2;-10;-12;17081
811079;2208;1862;97843;64;-70;-2;-10;-12;17081
812080;1921;2150;98129;67;-72;0;-10;-12;17081
813075;1753;2150;98368;72;-75;5;-10;-12;17081
814075;2710;2174;98344;75;-78;5;-10;-12;17081
815088;2304;1862;98296;77;-78;5;-10;-12;17081
816078;1538;1791;98440;75;-72;2;-10;-12;17081
817079;1682;2150;97866;72;-70;0;-10;-12;17081
818079;1705;2126;97628;67;-70;0;-10;-12;17081
819075;1993;2389;97962;64;-70;-5;-10;-12;17081
820075;2184;2557;98655;64;-70;-2;-10;-12;17081
821076;2040;2054;98822;64;-70;-2;-10;-12;17081
822076;2543;2054;98225;67;-70;-2;-10;-12;17081
823078;2160;2389;97747;69;-72;-2;-10;-12;17081
824077;1682;2102;97771;69;-78;-5;-10;-12;17081
825088;1897;2030;98416;67;-80;-5;-10;-12;17081
826078;1418;1934;98679;72;-83;-8;-10;-12;17081
827079;1993;1862;98583;75;-80;-8;-10;-12;17081
828079;2447;2222;98511;77;-72;-2;-10;-12;17081
829080;1753;2126;98535;77;-70;0;-10;-12;17081
830080;1490;1839;98249;77;-75;-5;-9;-12;17081
831076;1682;2126;97962;77;-80;-13;-9;-12;17081
832078;1753;2174;97890;77;-80;-18;-9;-12;17080
833079;2328;2174;97986;72;-78;-16;-9;-12;17080
834080;2040;1958;98392;67;-78;-8;-9;-12;17080
835085;1705;1958;98488;64;-78;-2;-9;-12;17080
836089;2040;2341;98034;61;-80;-5;-9;-12;17080
837079;1610;2413;97866;54;-83;-10;-9;-12;17080
838075;1729;2198;98153;48;-86;-10;-9;-12;17080
839076;1753;2126;98105;46;-86;-8;-10;-12;17080
840077;1490;2269;97866;51;-83;-8;-10;-12;17080
841078;1705;2389;97938;56;-80;-10;-10;-12;17080
842075;1753;2341;98344;59;-75;-8;-10;-12;17080
843075;1682;2317;98583;59;-75;-8;-10;-12;17080
844077;1921;2485;98440;56;-75;-8;-10;-12;17080
845077;1921;2485;98058;54;-72;-8;-10;-12;17080
846079;1682;2509;97843;56;-72;-8;-10;-12;17080
847090;1634;2126;98273;61;-78;-8;-10;-12;17080
848080;1682;2126;98583;64;-86;-5;-10;-12;17080
849076;1945;2006;98296;64;-91;-5;-10;-12;17080
850076;2208;2293;97986;67;-88;-8;-10;-12;17080
851076;2136;2461;97843;69;-86;-8;-10;-12;17080
852076;2280;2293;97914;72;-86;-5;-10;-12;17079
853078;2280;2437;97843;72;-88;0;-10;-12;17079
854079;2136;2628;97604;69;-91;2;-10;-13;17079
855080;2423;2413;97962;64;-94;0;-10;-13;17079
856079;1897;2341;98559;61;-91;-5;-10;-13;17079
857075;1442;2605;98750;64;-86;-8;-10;-13;17079
858075;1969;2509;98392;67;-80;-5;-10;-13;17079
859089;1993;2461;98081;69;-80;0;-10;-13;17079
860078;2184;2461;98034;69;-83;2;-10;-13;17079
861079;1993;2341;97651;72;-83;2;-9;-13;17079
862080;1682;1934;97556;72;-83;2;-9;-13;17079
863076;1849;2102;97938;69;-80;5;-9;-13;17079
864075;1921;2365;98464;69;-72;2;-9;-13;17079
865077;1921;2222;98679;64;-70;0;-9;-13;17079
866077;1873;1982;98440;64;-67;-5;-9;-13;17079
867078;1897;2317;98464;69;-70;-2;-9;-13;17079
868078;1969;2389;98273;72;-72;2;-9;-13;17079
869079;1873;2365;97938;72;-67;10;-9;-13;17079
870093;1490;2365;98368;72;-64;10;-9;-13;17080
871077;1705;2509;98416;72;-70;13;-9;-13;17080
872078;2304;2365;98344;67;-75;13;-9;-13;17080
873078;2352;2006;98535;64;-78;10;-9;-13;17080
874079;1921;1934;98607;64;-83;7;-9;-13;17080
875079;1682;2006;98296;67;-88;7;-9;-13;17080
876075;2040;1910;97628;67;-94;10;-9;-13;17080
877075;1969;1934;97675;61;-91;10;-9;-13;17080
878076;1658;1958;97962;56;-83;10;-9;-13;17080
879076;2088;1886;98225;54;-78;13;-9;-13;17080
880077;2040;2150;98058;54;-78;13;-9;-13;17080
881090;1849;2293;97317;56;-80;13;-9;-13;17080
882079;1682;2293;97747;54;-78;13;-9;-13;17080
883076;1394;1982;98416;54;-72;13;-9;-13;17080
884075;1466;1958;98225;56;-67;10;-9;-13;17080
885077;1969;1958;98129;56;-64;10;-9;-13;17080
886076;2208;2317;98273;59;-67;10;-9;-13;17081
887078;1562;2269;98989;61;-70;10;-9;-13;17081
888077;1538;2198;99348;69;-70;5;-9;-13;17081
889079;1705;2365;98416;75;-75;2;-9;-13;17081
890079;1634;2198;97675;83;-83;0;-9;-13;17081
891080;1849;2006;97795;85;-83;2;-9;-13;17081
892090;1729;1982;98153;88;-80;7;-9;-13;17081
893080;2112;1839;98511;85;-75;10;-9;-13;17081
894076;2328;2269;98153;83;-75;13;-9;-13;17081
895075;2160;2892;98034;80;-80;13;-9;-13;17081
896077;2352;2772;98320;80;-78;15;-9;-13;17081
897077;1873;2006;98249;77;-70;18;-9;-13;17081
898079;1610;1599;97962;77;-62;21;-8;-13;17081
899079;2208;1958;97675;75;-54;26;-8;-13;17081
900076;2136;2150;98153;75;-49;26;-8;-13;17081
901076;2208;2222;98583;69;-49;23;-8;-12;17082
902093;2112;2078;98918;67;-54;15;-8;-12;17082
903077;2064;2150;98918;69;-59;7;-8;-12;17082
904079;1945;2078;98296;69;-62;7;-8;-12;17082
905080;1897;2174;97938;67;-62;5;-8;-12;17082
906076;2184;2150;98153;64;-62;2;-8;-12;17082
907076;1921;1671;98225;61;-62;2;-8;-12;17082
908078;2543;1982;98058;59;-59;5;-8;-12;17082
909079;2208;2102;98488;54;-62;7;-8;-12;17082
910075;1801;2222;98774;54;-64;10;-8;-12;17082
911075;2256;2054;98607;59;-72;10;-9;-12;17082
912078;1945;1695;98153;61;-78;7;-9;-12;17082
913089;2040;1958;97628;64;-78;5;-9;-12;17082
914075;1825;1958;97604;64;-75;5;-9;-12;17082
915075;2136;1839;98296;59;-75;2;-9;-12;17082
916076;2495;1886;98894;51;-78;2;-9;-12;17082
917075;1538;1958;98822;48;-80;-2;-9;-12;17082
918076;2017;2509;98511;54;-80;-8;-9;-12;17082
919076;1753;2461;97819;59;-80;-10;-9;-12;17082
920077;1251;2150;97460;61;-78;-13;-9;-12;17082
921078;2088;2150;97651;64;-75;-16;-9;-12;17082
922079;2017;1767;98320;64;-70;-24;-9;-12;17082
923094;2136;1815;98535;61;-64;-26;-9;-12;17082
924088;2088;1815;98273;61;-59;-29;-9;-12;17082
925078;1969;2126;98535;64;-62;-26;-9;-12;17081
926079;2112;2317;98344;69;-64;-24;-9;-12;17081
927079;2017;2245;97890;75;-70;-21;-9;-12;17081
928080;2375;2126;97747;80;-72;-18;-9;-12;17081
929080;2495;1910;97962;83;-78;-16;-9;-12;17081
930076;2471;1982;98464;85;-80;-16;-9;-12;17081
931075;2375;2365;98965;83;-78;-16;-9;-12;17081
932078;1729;2533;99013;77;-72;-18;-9;-12;17081
933078;1993;2317;98679;75;-75;-16;-9;-12;17081
934092;2088;2102;97843;75;-78;-13;-9;-12;17080
935077;1705;2126;97221;77;-78;-8;-9;-12;17080
936078;1993;1839;97771;80;-78;-5;-9;-12;17080
937079;2256;1599;98703;77;-72;-8;-9;-12;17080
938079;2375;1958;98750;69;-67;-10;-9;-12;17080
939080;2136;2198;98559;67;-59;-10;-9;-12;17080
940075;1825;2198;98583;67;-57;-10;-9;-12;17080
941076;1921;2126;98201;67;-57;-13;-9;-12;17080
942076;1610;1767;98177;69;-57;-13;-9;-12;17080
943078;1610;1527;97914;77;-57;-10;-9;-12;17080
944078;2352;1982;97556;77;-62;-5;-9;-12;17080
945089;2399;1934;97914;72;-64;0;-9;-12;17080
946079;2399;1934;98225;67;-62;5;-9;-12;17080
947080;2208;2126;98416;64;-54;7;-9;-12;17080
948080;1969;2437;98296;67;-57;5;-9;-11;17080
949075;2160;2748;97699;72;-62;5;-9;-11;17080
950075;2232;2102;97651;69;-70;7;-9;-11;17080
951077;2423;1456;98296;67;-70;7;-9;-11;17080
952078;2687;1503;98631;64;-70;13;-9;-11;17080
953079;2734;1791;98344;67;-72;15;-9;-11;17080
954079;2687;2222;98081;67;-72;13;-9;-11;17080
955080;1993;2054;98511;64;-72;7;-9;-11;17080
956090;1634;1862;98822;61;-70;2;-9;-11;17080
957075;1514;1862;98416;64;-67;0;-9;-11;17080
958075;2040;1479;97699;69;-64;-5;-9;-11;17080
959076;2567;1815;97556;75;-59;-8;-9;-11;17080
960076;1969;1958;98631;69;-57;-10;-9;-11;17080
961078;2160;1743;99539;69;-57;-10;-9;-11;17080
962080;2399;1839;98941;77;-59;-13;-9;-11;17080
963076;2232;2365;97484;80;-59;-10;-9;-11;17080
964076;1993;2461;97198;77;-62;0;-9;-11;17080
965078;1562;1886;98320;75;-64;0;-9;-11;17080
966095;2304;2006;98655;77;-70;2;-9;-11;17080
967090;3045;2078;97843;77;-70;7;-9;-11;17080
968075;2615;2078;97628;77;-75;15;-9;-11;17080
969077;2495;1934;98392;75;-80;15;-9;-11;17080
970078;1777;1503;99037;75;-88;13;-9;-11;17080
971079;1538;2030;98750;80;-91;10;-9;-11;17080
972075;2017;2030;97819;85;-91;7;-9;-12;17080
973077;2423;2102;97675;85;-83;5;-9;-12;17080
974077;2471;1839;98655;80;-75;2;-9;-12;17080
975079;2352;1839;99109;80;-72;2;-9;-12;17080
976079;2495;1839;98320;83;-72;-2;-9;-12;17080
977076;2328;2174;97723;83;-72;-2;-9;-12;17080
978089;1729;2198;98105;77;-70;5;-9;-12;17080
979080;1179;1503;98774;72;-70;7;-9;-12;17081
980075;1945;1503;98511;75;-70;0;-9;-12;17081
981076;2543;1958;97795;83;-70;-5;-8;-12;17081
982076;2758;2102;97843;80;-67;-2;-8;-12;17080
983076;2328;1839;98918;69;-62;5;-8;-12;17081
984076;1442;1815;99491;61;-62;5;-8;-12;17081
985078;1897;2533;98296;61;-64;2;-9;-12;17081
986077;2064;2533;97389;67;-64;0;-9;-12;17081
987079;1514;1767;98010;69;-64;2;-9;-12;17081
988092;1801;1527;99204;72;-67;2;-9;-12;17081
989077;2567;1599;99156;72;-70;2;-9;-12;17081
990077;2998;1599;97795;72;-72;2;-9;-12;17081
991078;2998;2293;97604;69;-70;2;-9;-12;17081
992079;2136;2293;98798;61;-62;2;-9;-12;17081
993080;1275;1862;99515;59;-57;0;-9;-12;17081
994080;1658;1862;98679;56;-59;-2;-9;-12;17081
995076;2399;2269;97317;59;-62;0;-9;-12;17081
996076;2567;2102;97604;59;-59;0;-9;-12;17081
997077;2232;1551;99013;56;-54;2;-9;-12;17081
998077;1921;1551;99539;56;-49;2;-9;-12;17081
999091;1753;2461;98416;56;-51;0;-9;-12;17081
1000078;2040;2461;97245;51;-54;-2;-9;-11;17081
1001078;1921;2006;97986;48;-51;-2;-10;-11;17081
1002080;1155;2006;99395;54;-46;-2;-10;-11;17081
1003080;2040;2245;99395;59;-49;-8;-10;-11;17081
1004076;3093;2245;98010;64;-54;-8;-10;-11;17081
1005075;2447;2150;97389;64;-59;-10;-10;-11;17080
1006077;1610;2150;98273;64;-57;-8;-10;-11;17080
1007077;1275;1647;99061;69;-57;-5;-10;-11;17080
1008078;1490;1647;98583;77;-59;-5;-10;-11;17080
1009092;2328;2198;97628;85;-64;0;-10;-11;17080
1010077;2423;2198;97914;88;-67;2;-10;-11;17080
1011077;2184;1384;98918;85;-67;0;-10;-11;17080
1012079;2184;1384;98846;83;-67;-5;-10;-11;17080
1013079;1921;2198;97914;80;-67;-8;-10;-11;17080
1014075;2447;2198;97341;77;-67;0;-9;-11;17080
1015075;2256;2078;97723;75;-64;10;-9;-11;17080
1016076;1370;2078;98941;75;-62;10;-9;-11;17080
1017076;1801;1647;98941;80;-62;7;-9;-10;17080
1018077;2064;1647;97843;88;-64;2;-9;-10;17080
1019077;2399;1767;97556;96;-67;0;-9;-10;17080
1020093;2567;1503;97938;93;-70;2;-9;-10;17080
1021077;1777;1958;98583;91;-70;7;-9;-10;17080
1022079;1873;1958;98607;91;-67;5;-9;-10;17081
1023079;2136;2054;97843;91;-62;0;-9;-10;17081
1024080;2782;2054;97651;91;-62;-2;-9;-10;17081
1025080;2591;1647;98655;91;-62;-2;-8;-10;17081
1026075;2160;1647;99013;91;-64;-2;-8;-10;17080
1027076;2854;2030;98105;88;-67;2;-8;-10;17080
1028077;2639;2030;97628;83;-70;7;-8;-10;17081
1029078;2184;1791;97771;69;-70;13;-8;-10;17081
1030089;1801;1599;98320;61;-75;13;-8;-10;17081
1031080;2136;2389;98607;59;-80;10;-8;-10;17081
1032076;2615;2389;98368;56;-83;5;-8;-11;17081
1033077;2567;1910;98105;51;-86;2;-9;-11;17081
1034077;2399;1815;98058;46;-86;5;-9;-11;17081
1035079;2232;1982;98081;46;-83;5;-9;-11;17081
1036080;2519;2269;97890;48;-78;2;-9;-11;17081
1037076;2399;2557;97938;48;-75;2;-9;-11;17081
1038076;1658;2557;98201;48;-75;2;-9;-11;17081
1039078;1562;2102;98655;46;-72;2;-9;-11;17081
1040089;1993;2174;98846;48;-70;2;-10;-11;17081
1041080;2208;2030;98488;56;-72;2;-10;-11;17081
1042075;2328;2030;98105;56;-78;2;-10;-11;17081
1043077;1945;1743;97938;59;-83;-2;-10;-11;17081
1044078;1538;1743;98129;64;-86;-8;-10;-11;17081
1045080;1777;2413;98368;67;-83;-10;-10;-11;17081
1046080;2208;2269;98750;69;-80;-8;-10;-12;17081
1047075;1969;1958;99013;69;-88;0;-10;-12;17081
1048075;2040;1958;98726;69;-94;2;-10;-12;17081
1049076;2256;1958;97962;69;-94;0;-10;-12;17081
1050076;1538;1958;97723;67;-91;-5;-10;-12;17081
1051091;1969;1791;98105;67;-88;-8;-10;-12;17081
1052077;1825;1886;98559;67;-83;-8;-10;-12;17081
1053077;1275;2437;98655;67;-80;-8;-10;-12;17081
1054078;1993;2437;98488;72;-78;-8;-10;-12;17081
1055078;1753;1623;98583;83;-78;-8;-10;-12;17081
1056079;1873;1623;98607;83;-75;-5;-10;-12;17080
1057079;2112;1862;98392;77;-78;-2;-10;-12;17080
1058080;1921;2581;97914;75;-83;-2;-10;-12;17080
1059080;2615;2365;97460;77;-83;-5;-10;-13;17080
1060076;2567;2365;98201;80;-78;2;-10;-13;17080
1061092;1347;1791;99276;77;-75;5;-10;-13;17080
1062091;1466;1527;98894;80;-75;2;-10;-13;17080
1063076;2256;2102;98010;77;-78;-8;-10;-13;17080
1064077;2495;2461;97341;75;-83;-10;-10;-13;17080
1065077;2543;1958;97460;67;-86;-8;-10;-13;17080
1066079;1729;2054;98296;59;-83;-5;-10;-13;17080
1067078;1873;2437;98296;59;-78;-8;-10;-13;17080
1068080;2375;2437;97890;59;-78;-5;-10;-13;17080
1069080;2112;2533;98058;61;-78;-2;-10;-13;17080
1070075;1753;1767;98774;61;-78;2;-10;-13;17080
1071075;1586;1743;98726;59;-72;10;-10;-13;17080
1072091;2208;2365;97699;56;-70;13;-10;-13;17080
1073092;2208;2628;97317;54;-70;10;-10;-13;17080
1074076;1682;2557;97771;54;-70;10;-10;-13;17080
1075077;1299;2078;99085;54;-64;7;-10;-13;17080
1076077;1131;2030;99563;59;-59;7;-10;-13;17081
1077079;1969;2485;98416;61;-62;5;-10;-13;17081
1078079;2567;2269;97460;61;-64;10;-10;-13;17081
1079080;2160;1767;97651;61;-59;15;-10;-13;17081
1080079;1993;1910;98201;67;-57;15;-10;-13;17081
1081075;1825;2437;98081;75;-54;13;-10;-12;17081
1082076;1777;2437;97747;83;-54;10;-10;-12;17081
1083087;1466;2102;97962;91;-59;7;-10;-12;17081
1084090;1562;1958;98488;96;-62;7;-10;-12;17081
1085079;1921;1934;98655;93;-64;2;-10;-12;17081
1086075;2663;2509;98010;91;-64;-8;-10;-12;17081
1087075;2591;2868;97508;91;-67;-13;-9;-12;17081
1088076;1418;2652;98177;88;-70;-13;-9;-12;17081
1089076;1729;2317;99013;83;-67;-8;-9;-12;17081
1090077;2208;2293;99085;77;-70;-8;-9;-12;17081
1091077;1849;2293;98464;75;-75;-8;-9;-12;17081
1092079;2184;2413;98201;72;-78;-8;-9;-12;17081
1093080;1897;2174;98559;67;-75;-5;-9;-12;17081
1094089;2064;1910;98822;64;-70;-2;-9;-12;17081
1095079;2543;2700;98464;61;-62;-5;-9;-12;17081
1096076;1658;2581;97723;56;-64;-5;-9;-12;17081
1097076;1777;1910;98034;51;-72;-5;-9;-12;17081
1098078;1825;2078;99013;48;-75;-8;-9;-12;17080
1099078;1873;2293;99085;51;-72;-10;-9;-12;17080
1100080;2352;2269;98201;56;-70;-10;-9;-12;17080
1101075;1538;1886;97460;61;-72;-5;-9;-12;17080
1102078;1562;1623;97604;64;-75;0;-9;-12;17080
1103078;2040;2006;98392;61;-78;2;-9;-12;17080
1104096;2112;2269;98774;61;-78;5;-9;-12;17080
1105093;2471;2222;98225;61;-80;5;-9;-12;17080
1106078;1897;2078;97771;61;-80;2;-9;-12;17080
1107079;1921;2054;98034;56;-80;2;-9;-12;17080
1108080;1825;2222;98296;56;-83;-5;-9;-12;17080
1109076;1705;2437;97986;56;-86;-8;-9;-12;17080
1110076;1873;2365;97962;59;-86;-10;-10;-12;17080
1111078;1610;2126;97986;61;-83;-16;-10;-12;17080
1112078;1873;2317;98153;67;-80;-16;-10;-12;17080
1113078;2064;2724;98846;72;-72;-13;-9;-12;17080
1114078;2088;2605;98870;69;-67;-10;-9;-12;17080
1115079;1993;2054;98153;67;-64;-10;-9;-12;17080
1116088;1969;2293;97986;64;-67;-8;-9;-12;17080
1117079;2088;2652;98177;64;-70;-2;-9;-12;17080
1118079;2352;2485;98249;64;-67;0;-9;-12;17080
1119080;2112;2317;98655;64;-64;2;-9;-12;17080
1120080;2040;2413;98703;61;-67;2;-9;-12;17080
1121075;2017;2652;98416;59;-72;0;-9;-12;17080
1122076;2040;2245;98607;56;-75;-2;-10;-12;17080
1123077;1777;1910;98607;54;-75;-2;-10;-11;17080
1124077;1729;2126;98081;51;-75;2;-10;-11;17080
1125078;2136;2437;97843;48;-78;5;-10;-12;17080
1126148;1634;2365;97890;46;-80;2;-10;-12;17080
1127079;2017;2198;98392;48;-83;0;-10;-12;17080
1128079;2136;2413;98918;51;-86;0;-10;-12;17080
1129075;1610;2437;98703;51;-88;5;-10;-12;17080
1130075;1993;2269;97819;56;-88;7;-10;-12;17080
1131076;1777;2293;97341;61;-83;7;-10;-12;17080
1132077;1490;2341;97890;64;-80;5;-10;-12;17080
1133078;1873;2389;98440;67;-83;10;-10;-12;17080
1134078;2160;2245;98774;72;-86;10;-10;-12;17080
1135079;2328;2269;98511;77;-86;7;-10;-12;17080
1136079;2399;2293;97866;83;-88;7;-10;-12;17080
1137091;2328;2222;97938;88;-83;2;-10;-12;17080
1138075;1993;2174;98081;83;-78;2;-10;-12;17080
1139076;2088;2222;97866;80;-75;5;-10;-12;17080
1140077;2591;2509;97771;80;-75;10;-9;-12;17080
1141078;2064;2126;98010;77;-72;13;-9;-12;17080
1142078;1658;1743;98918;77;-72;7;-9;-12;17080
1143079;1969;1719;99156;77;-72;5;-9;-12;17080
1144079;1682;2126;98344;77;-78;7;-9;-12;17081
1145075;2184;2772;97556;75;-80;10;-9;-12;17081
1146075;2088;2293;97293;69;-83;10;-9;-12;17081
1147093;1442;1719;98105;67;-86;13;-9;-12;17081
1148089;1921;2150;98679;67;-86;13;-9;-12;17081
1149079;2017;2557;98296;69;-88;13;-9;-12;17081
1150080;2017;2557;98177;72;-88;10;-9;-12;17081
1151075;1921;2293;98249;69;-88;10;-9;-12;17081
1152076;1634;2174;97866;67;-91;10;-9;-13;17081
1153077;1897;2413;97604;69;-91;10;-9;-13;17081
1154078;1777;2485;97604;69;-91;7;-9;-13;17081
1155078;1682;2317;97938;69;-86;2;-9;-13;17081
1156079;2519;2222;98655;67;-80;0;-9;-13;17081
1157079;2328;2437;98679;64;-78;0;-9;-13;17081
1158090;2280;2724;98201;64;-80;5;-9;-13;17081
1159079;2256;2461;97986;67;-80;7;-9;-13;17081
1160076;1323;2054;97986;72;-80;7;-9;-13;17081
1161076;1682;2174;97986;72;-86;7;-9;-13;17081
1162078;2184;2581;98034;72;-86;2;-9;-13;17081
1163079;2399;2652;98273;69;-83;0;-9;-13;17081
1164075;2040;2652;98344;64;-80;0;-9;-13;17081
1165075;1490;2509;98655;59;-78;0;-9;-13;17081
1166077;1634;2030;98798;56;-75;0;-9;-13;17081
1167077;1801;1982;98129;54;-75;0;-9;-13;17081
1168079;2112;2078;97436;54;-80;-2;-9;-13;17081
1169092;2088;2222;97771;54;-80;-2;-9;-13;17081
1170076;2017;2341;98583;51;-75;-5;-9;-13;17081
1171078;2184;2581;99085;54;-70;-8;-9;-13;17081
1172080;1945;2557;98870;59;-70;-8;-9;-13;17081
1173076;1347;2006;98201;59;-75;-8;-9;-13;17081
1174076;1825;1575;97962;54;-75;-10;-9;-13;17081
1175078;2328;1862;97962;54;-70;-8;-9;-13;17081
1176079;2208;2174;97938;59;-62;-8;-9;-13;17081
1177075;2040;2365;97914;64;-57;-5;-9;-13;17081
1178080;1849;2437;98631;69;-54;-5;-9;-13;17081
1179075;2017;1982;99228;75;-54;-5;-9;-13;17081
1180088;2184;2269;98750;75;-57;-5;-9;-12;17081
1181078;1873;2245;97938;77;-59;-5;-9;-12;17081
1182079;1801;1862;97556;77;-64;-8;-9;-12;17081
1183079;2160;1767;98129;83;-62;-10;-9;-12;17081
1184075;2591;1647;98679;83;-64;-13;-9;-12;17081
1185075;2639;2030;98774;80;-67;-18;-9;-12;17081
1186076;2926;2054;98798;83;-72;-18;-9;-12;17080
1187076;2567;2078;98464;83;-78;-16;-8;-12;17080
1188078;1801;2293;98177;77;-80;-13;-8;-12;17080
1189077;2471;2341;98249;75;-78;-16;-8;-12;17080
1190091;2017;2365;98105;75;-72;-21;-8;-12;17080
1191075;1801;2389;97843;77;-67;-16;-8;-12;17080
1192077;2758;2198;98320;77;-59;-10;-8;-12;17080
1193077;2136;1815;99276;72;-54;-5;-8;-12;17080
1194078;2184;2006;98989;69;-51;-5;-8;-12;17080
1195078;2280;2222;97938;72;-51;-8;-8;-12;17080
1196079;1227;1982;97723;72;-57;-8;-8;-12;17080
1197079;1753;1886;98058;72;-62;-8;-8;-12;17080
1198075;2591;2054;98535;64;-64;-8;-8;-12;17080
1199075;2423;2365;98894;61;-67;-2;-8;-12;17080
1200076;2543;2485;98726;64;-67;0;-8;-12;17080
1201092;1658;1934;98511;64;-67;-2;-8;-12;17080
1202077;1370;1719;98894;61;-72;-5;-8;-12;17080
1203079;2639;2030;98488;56;-80;-8;-9;-12;17079
1204079;2495;2293;97556;56;-83;-8;-9;-12;17079
1205080;2543;2389;97938;54;-78;-2;-9;-12;17079
1206080;2017;2078;98631;51;-70;-2;-9;-12;17079
1207076;1610;1886;98965;51;-62;-5;-9;-12;17079
1208076;2399;2269;98774;51;-59;-5;-9;-12;17079
1209077;1897;2174;98153;54;-59;2;-9;-12;17079
1210077;1490;1671;97986;54;-64;7;-9;-12;17079
1211078;1562;1599;98058;48;-67;10;-9;-12;17079
1212092;1658;1647;97866;48;-64;10;-9;-12;17080
1213077;2710;1862;97866;56;-62;5;-10;-12;17080
1214077;2088;1719;98464;61;-64;0;-10;-12;17080
1215079;1562;1503;98846;59;-64;-2;-10;-12;17080
1216079;2352;1982;98464;56;-64;2;-10;-11;17080
1217080;1993;2126;97819;56;-67;10;-10;-11;17080
1218075;2112;2078;97532;61;-70;13;-10;-11;17080
1219076;2184;1695;97986;67;-70;13;-10;-11;17080
1220076;2112;1456;98870;75;-67;15;-10;-11;17080
1221077;2495;1862;99061;77;-62;15;-10;-11;17080
1222077;2399;1886;98416;75;-57;18;-10;-11;17080
1223091;2232;1958;98177;77;-59;21;-10;-11;17080
1224075;1658;1695;98368;80;-62;29;-10;-11;17080
1225077;1658;1479;98344;80;-57;26;-10;-11;17080
1226077;2280;1958;98058;83;-54;18;-10;-11;17081
1227079;2160;2078;97580;83;-57;15;-10;-11;17081
1228079;1945;1910;97628;83;-64;13;-10;-11;17081
1229076;2256;1934;98655;83;-67;13;-10;-11;17081
1230076;2328;1862;99276;80;-67;10;-9;-11;17081
1231078;2040;2102;98440;75;-72;5;-9;-11;17081
1232080;2136;2269;97245;77;-75;-8;-9;-11;17081
1233076;1777;1647;97030;77;-72;-13;-9;-11;17081
1234089;1753;1384;98081;75;-67;-5;-9;-11;17081
1235091;2591;2030;99180;72;-62;5;-9;-11;17081
1236076;2543;2293;98750;69;-62;13;-9;-11;17081
1237078;1897;2150;97747;69;-67;13;-9;-11;17081
1238079;1538;1599;98058;69;-70;10;-10;-11;17081
1239075;1586;1120;98822;67;-72;5;-10;-11;17081
1240076;2064;1575;98726;64;-75;-2;-10;-11;17081
1241077;2304;1934;97914;61;-75;-5;-10;-11;17081
1242079;1466;1599;97460;64;-75;0;-10;-11;17081
1243079;1849;1647;97986;67;-72;2;-10;-11;17081
1244079;2447;2006;99180;69;-70;2;-10;-11;17081
1245167;2447;2269;99252;69;-70;0;-10;-11;17081
1246076;2663;2389;97843;69;-72;-2;-10;-11;17081
1247077;1801;1815;96983;67;-70;0;-10;-11;17081
1248078;1586;1695;97819;69;-67;2;-10;-11;17081
1249078;2088;1839;98989;75;-67;2;-10;-11;17081
1250079;2017;1767;98726;83;-70;2;-10;-11;17081
1251079;2734;1910;97938;85;-70;2;-10;-11;17081
1252076;2447;1958;98129;85;-67;0;-10;-11;17081
1253076;1490;2006;98607;85;-64;0;-10;-11;17081
1254077;2328;2174;98726;88;-64;0;-10;-11;17081
1255077;2280;2150;98511;88;-67;-2;-9;-11;17081
1256088;2232;1671;97890;85;-70;-2;-9;-11;17081
1257078;2567;1240;97795;80;-72;-2;-9;-11;17081
1258079;2375;1503;98105;77;-67;0;-9;-11;17081
1259079;2615;2078;98320;72;-59;5;-9;-11;17081
1260080;2184;2245;98846;67;-57;7;-9;-11;17081
1261075;2232;2030;99013;64;-62;7;-9;-11;17081
1262076;2017;1671;98607;64;-67;7;-9;-11;17081
1263077;1370;1503;98320;64;-67;10;-10;-11;17081
1264078;2040;1575;98177;61;-64;10;-10;-11;17081
1265078;2423;2030;98225;64;-62;7;-10;-11;17081
1266079;2447;2389;98368;67;-62;5;-10;-11;17081
1267092;1921;2198;98535;72;-64;2;-10;-11;17081
1268077;1418;1886;98774;69;-59;0;-10;-11;17081
1269078;1586;1671;98703;69;-57;0;-10;-11;17081
1270078;1873;1839;98177;72;-59;-2;-10;-11;17081
1271080;1562;1958;98105;75;-64;-2;-10;-11;17081
1272080;1586;1910;98344;77;-67;-2;-10;-11;17081
1273076;2328;1910;98870;75;-67;-5;-10;-11;17081
1274076;2639;1791;99013;72;-67;-5;-10;-11;17081
1275077;2423;1934;98320;69;-67;-8;-10;-11;17081
1276077;2160;1839;97843;72;-72;-2;-10;-11;17081
1277078;1801;1791;98249;67;-75;2;-10;-11;17081
1278090;1729;1910;98631;64;-75;2;-10;-11;17081
1279079;2519;1934;98177;61;-75;0;-10;-11;17081
1280075;2160;2102;97747;59;-75;-5;-10;-11;17081
1281075;2088;2174;98488;56;-72;-8;-10;-11;17081
1282076;2184;2054;99324;59;-75;-8;-10;-11;17081
1283076;1347;1815;98894;61;-80;-5;-10;-12;17081
1284078;1729;2174;97914;61;-86;0;-10;-12;17081
1285078;1873;2102;97221;64;-83;0;-10;-12;17081
1286079;1610;1767;97699;64;-72;-2;-10;-12;17081
1287079;2208;1886;98726;69;-62;-5;-10;-12;17081
1288091;2352;1862;98989;75;-62;-2;-10;-12;17081
1289075;2088;2054;98583;75;-64;0;-10;-12;17081
1290077;1993;2317;98129;72;-67;0;-10;-12;17081
1291077;1610;2317;97938;69;-64;-5;-10;-12;17081
1292080;1658;1862;97962;75;-64;-8;-10;-12;17081
1293080;2423;1743;97890;88;-64;-5;-10;-11;17081
1294076;2687;1958;97890;93;-67;-8;-10;-11;17081
1295077;2591;1862;98607;91;-67;-10;-10;-11;17081
1296078;2543;1934;99395;83;-67;-8;-10;-11;17081
1297079;1969;1982;98703;80;-72;-5;-10;-11;17081
1298089;1466;2030;97604;75;-80;0;-10;-11;17081
1299075;1418;1910;97628;75;-83;5;-10;-12;17081
1300076;2328;1910;98368;77;-80;5;-10;-12;17081
1301078;2519;1791;98511;77;-75;0;-10;-12;17081
1302078;2399;1719;98320;77;-70;-5;-10;-12;17081
1303080;2232;2222;98296;75;-70;-2;-10;-12;17081
1304075;1466;2174;98344;72;-72;0;-10;-12;17081
1305077;1777;1839;98703;69;-70;-2;-10;-12;17081
1306077;2064;2198;98535;69;-67;-5;-10;-12;17081
1307079;1873;2341;97914;72;-70;-2;-10;-12;17081
1308079;2040;2245;97747;80;-70;2;-10;-12;17081
1309092;2136;2198;98607;83;-64;5;-10;-12;17081
1310075;2495;2126;99228;83;-59;5;-9;-12;17081
1311076;3093;2174;98726;77;-57;5;-9;-12;17081
1312076;1873;1695;98129;75;-57;0;-9;-11;17081
1313078;1323;1671;97675;69;-59;-2;-9;-11;17081
1314077;1777;1767;97651;67;-62;-8;-9;-11;17081
1315079;2184;1432;98607;69;-59;-10;-9;-11;17081
1316079;2902;1910;99037;69;-59;-8;-9;-11;17081
1317080;2256;2317;98583;61;-67;-5;-9;-11;17081
1318080;1825;2222;98368;59;-75;-8;-10;-11;17080
1319089;1634;2078;98368;59;-78;-8;-10;-11;17080
1320075;1370;1910;98320;56;-78;-5;-10;-11;17080
1321075;2064;2006;98392;56;-75;2;-10;-11;17080
1322077;2112;2078;98607;51;-72;2;-10;-11;17080
1323076;1729;2006;98177;48;-70;0;-10;-11;17080
1324078;2543;2102;98392;51;-67;-2;-10;-11;17080
1325078;2256;2030;98798;51;-64;-2;-10;-11;17080
1326079;1418;1862;98440;46;-70;-2;-10;-11;17080
1327079;2256;2317;97747;40;-78;-2;-11;-11;17080
1328075;1466;2365;97675;43;-83;-5;-11;-11;17080
1329093;1179;2174;98225;51;-80;-5;-11;-12;17080
1330078;2447;2030;98559;59;-78;-8;-11;-12;17080
1331078;2280;1791;98798;67;-83;-8;-11;-12;17080
1332075;2328;2102;98535;72;-91;-8;-11;-12;17080
1333075;1705;2174;98034;75;-94;-5;-11;-12;17080
1334076;1418;1982;98105;75;-88;0;-11;-12;17080
1335076;1993;2126;98511;77;-86;0;-11;-12;17080
1336077;1921;2174;98416;83;-86;-2;-11;-12;17080
1337077;2519;2341;98249;88;-88;-5;-11;-12;17080
1338078;2399;2485;98344;91;-86;-5;-10;-12;17080
1339078;1801;2437;98535;91;-86;-2;-10;-12;17080
1340164;2184;2389;98440;85;-86;-5;-10;-12;17080
1341079;2232;2413;98105;77;-91;-2;-10;-13;17080
1342079;1849;2293;98081;75;-91;-2;-10;-13;17080
1343075;1682;2054;98392;75;-83;-5;-10;-13;17080
1344075;1753;2126;98368;75;-78;-2;-10;-13;17080
1345076;2399;2102;98583;75;-75;0;-10;-13;17080
1346076;2543;2365;98679;80;-67;0;-10;-13;17080
1347077;2208;2533;98177;80;-64;2;-10;-13;17080
1348077;2088;2198;98010;83;-62;2;-10;-13;17080
1349079;1945;2030;98296;85;-64;0;-10;-12;17080
1350096;1873;2102;98320;88;-62;0;-9;-12;17080
1351092;2280;2054;98201;88;-59;0;-9;-12;17080
1352076;2567;2150;98416;85;-62;2;-9;-12;17080
1353078;2280;2150;98320;83;-67;5;-9;-12;17080
1354078;2017;2078;98177;80;-75;10;-9;-12;17080
1355080;2112;2341;98081;77;-80;10;-9;-12;17080
1356075;2280;2413;98081;69;-80;7;-9;-12;17080
1357076;2160;2557;98273;64;-78;2;-9;-12;17080
1358077;1849;2317;98440;59;-75;0;-9;-12;17080
1359079;1610;2341;98273;56;-72;5;-9;-12;17080
1360079;1945;2389;98034;59;-72;7;-9;-12;17080
1361076;2375;2150;98225;64;-78;2;-9;-12;17080
1362178;2328;2126;98440;64;-80;0;-9;-12;17080
1363077;2375;2054;98273;61;-80;0;-9;-12;17080
1364078;2136;1886;98344;59;-75;2;-9;-12;17080
1365079;1418;1719;98535;56;-72;-2;-9;-12;17080
1366080;1801;1958;98416;51;-72;-5;-9;-12;17080
1367076;2088;2269;98583;51;-78;-5;-10;-13;17080
1368076;2017;2150;98392;56;-80;-2;-10;-13;17080
1369078;1969;2102;97819;61;-83;-5;-10;-13;17080
1370079;1849;2461;98177;64;-83;-5;-10;-13;17080
1371075;1849;2605;98607;69;-83;-2;-10;-13;17080
1372076;1993;2413;98631;72;-86;-2;-10;-13;17080
1373250;2136;2150;98225;72;-86;2;-10;-13;17080
1374078;1993;2030;98081;72;-88;5;-10;-13;17080
1375078;1873;2006;98511;69;-94;7;-10;-13;17080
1376079;1801;2150;97890;67;-99;7;-10;-13;17080
1377080;2040;2222;97699;64;-99;7;-10;-13;17080
1378075;2064;2389;98105;59;-96;10;-10;-14;17080
1379075;1682;2269;98201;56;-91;10;-10;-14;17080
1380077;1849;1839;98201;56;-88;10;-10;-14;17080
1381075;1514;1743;98320;59;-83;10;-10;-14;17080
1382077;1514;1886;98774;59;-78;5;-10;-14;17080
1383124;2160;2174;98822;56;-78;2;-10;-14;17081
1384077;1777;2245;98392;56;-80;0;-10;-14;17081
1385077;1777;2245;98105;61;-75;-2;-10;-14;17080
1386078;1993;2054;98153;67;-67;0;-10;-14;17080
1387078;2136;2102;98488;72;-64;2;-10;-14;17081
1388079;1993;2437;98822;75;-64;5;-10;-14;17081
1389079;1658;2461;98679;75;-62;2;-10;-14;17081
1390075;1777;2269;98296;75;-54;-2;-10;-13;17081
1391075;1801;2198;98296;77;-51;-5;-10;-13;17081
1392077;2088;2054;98631;77;-57;-2;-10;-13;17080
1393077;2447;2150;98320;72;-62;-2;-10;-13;17080
1394093;2495;2533;97843;69;-64;-2;-9;-13;17080
1395078;1969;2150;98058;72;-62;0;-9;-13;17080
1396078;1682;1743;98416;72;-62;2;-9;-13;17080
1397079;2184;1886;98726;69;-62;5;-9;-13;17080
1398079;2447;2365;98750;64;-64;5;-9;-13;17081
1399075;2184;2437;98464;61;-70;0;-9;-13;17081
1400075;1945;2030;98225;59;-72;-5;-9;-13;17080
1401076;1538;1886;98368;54;-72;-8;-10;-13;17080
1402077;1490;1910;98679;54;-67;-8;-10;-13;17080
1403078;1921;2150;98488;59;-64;-5;-10;-13;17080
1404091;1825;2628;98273;64;-62;-2;-10;-13;17080
1405076;1993;2317;98559;64;-62;-5;-10;-12;17080
1406076;2232;1743;99109;61;-62;-13;-10;-12;17080
1407077;1825;2006;98941;61;-62;-10;-10;-12;17080
1408077;1873;2054;98034;61;-62;0;-10;-12;17080
1409078;1849;2126;97723;64;-59;5;-10;-12;17080
1410078;1538;2437;97986;67;-57;7;-10;-12;17080
1411079;1849;2389;98607;67;-54;7;-10;-12;17080
1412075;2136;2293;99085;64;-57;7;-10;-12;17080
1413076;2280;2198;98798;64;-64;10;-10;-12;17080
1414093;1921;2078;98392;64;-70;7;-10;-12;17080
1415078;1370;1934;98488;67;-67;5;-10;-12;17080
1416079;1658;2054;98416;72;-59;7;-10;-12;17081
1417080;1801;2413;98201;75;-57;15;-10;-12;17081
1418080;1777;2652;98535;75;-59;18;-10;-11;17081
1419075;2136;2413;98726;72;-64;13;-10;-11;17081
1420075;2112;2198;98918;69;-67;7;-10;-11;17081
1421077;2256;2245;98941;67;-67;5;-10;-11;17081
1422078;1897;2054;98201;67;-72;2;-9;-11;17081
1423079;1682;1886;98129;61;-75;2;-10;-11;17081
1424092;1801;2222;98392;59;-72;0;-10;-11;17081
1425089;1729;2413;98607;59;-67;0;-10;-11;17081
1426079;1969;2437;98941;59;-64;0;-10;-11;17081
1427075;2208;2509;98559;59;-70;-2;-10;-11;17081
1428075;2184;2102;98368;59;-75;-10;-10;-11;17081
1429077;1658;1815;98440;59;-80;-16;-10;-11;17081
1430078;1849;2030;98249;61;-86;-13;-10;-11;17081
1431079;2136;2150;97938;67;-88;-10;-10;-11;17081
1432075;1825;2126;97866;67;-88;-5;-10;-11;17081
1433077;2136;2174;98488;64;-88;0;-10;-11;17081
1434077;2495;2174;98918;64;-86;2;-10;-11;17081
1435090;2232;2293;98607;69;-86;5;-10;-12;17081
1436075;2088;2222;97843;72;-94;2;-10;-12;17081
1437076;1873;2126;97747;72;-102;-2;-10;-12;17081
1438078;1634;2174;98249;72;-102;-2;-10;-12;17081
1439079;1729;2245;98392;75;-99;2;-9;-12;17081
1440079;1945;2413;98464;77;-94;0;-9;-12;17081
1441079;2112;2485;98703;75;-94;-5;-9;-12;17081
1442080;2208;2485;98870;67;-91;-5;-9;-12;17081
1443080;2567;2341;98511;61;-88;-5;-9;-12;17080
1444076;1945;1886;97771;61;-80;-10;-9;-12;17080
1445175;1586;2030;97413;61;-75;-16;-9;-13;17080
1446079;2112;2198;97747;59;-70;-16;-9;-12;17080
1447079;2304;2413;98511;59;-67;-10;-9;-12;17080
1448075;2543;2676;98870;64;-67;-5;-9;-12;17080
1449075;2088;2509;98774;69;-67;-5;-9;-12;17080
1450076;1562;2485;98870;72;-70;-5;-9;-12;17080
1451076;1993;2174;98631;72;-70;-2;-9;-12;17080
1452078;2423;1910;98153;72;-72;-2;-9;-12;17080
1453078;2423;2150;97819;75;-70;0;-9;-12;17080
1454079;2304;2365;98201;75;-67;0;-9;-12;17080
1455079;1658;2150;98631;72;-67;2;-9;-12;17080
1456090;2280;2341;98822;69;-64;0;-9;-12;17080
1457079;2710;2509;98774;75;-64;-2;-9;-12;17080
1458075;1921;2509;98129;83;-67;-5;-9;-12;17080
1459075;2256;2485;97866;83;-67;-10;-9;-12;17080
1460077;2017;2030;98320;77;-70;-10;-9;-12;17080
1461076;2017;1599;98392;75;-80;-2;-9;-12;17080
1462078;2232;1910;98058;69;-83;2;-9;-12;17080
1463078;1921;2389;98655;64;-86;5;-9;-12;17080
1464079;2208;2293;98965;59;-86;5;-9;-12;17080
1465079;2017;2006;98392;61;-86;7;-9;-12;17080
1466091;1777;1791;97580;67;-86;5;-9;-12;17080
1467076;1945;1791;97389;67;-83;5;-9;-12;17080
1468077;1921;1791;98105;64;-78;5;-9;-12;17080
1469077;2160;1958;98703;61;-75;5;-9;-12;17080
1470078;2160;2533;98440;59;-72;5;-9;-13;17080
1471079;1562;2724;97675;59;-70;7;-9;-12;17080
1472075;2017;2413;98034;59;-64;5;-9;-12;17080
1473080;2088;2102;98511;61;-59;5;-9;-12;17080
1474076;1897;1910;98201;64;-57;7;-9;-12;17080
1475076;2040;1862;97723;67;-57;7;-9;-12;17080
1476091;1873;2317;98511;69;-62;5;-9;-12;17080
1477080;1921;2317;99300;69;-59;5;-9;-12;17080
1478076;1921;2317;98989;67;-54;10;-9;-12;17080
1479076;1873;2174;98105;67;-51;15;-9;-12;17080
1480077;2184;1743;97580;69;-49;21;-9;-12;17081
1481077;1969;1384;97962;72;-49;18;-9;-12;17081
1482079;1969;1695;98774;72;-49;13;-9;-11;17081
1483079;2064;2317;98631;69;-51;7;-9;-11;17081
1484075;2447;2581;98273;69;-57;10;-9;-11;17081
1485080;1705;1910;98607;67;-62;10;-9;-11;17081
1486092;1897;1408;98822;59;-64;5;-9;-11;17081
1487077;1897;1671;98846;56;-70;0;-9;-11;17081
1488078;2375;1910;98559;59;-78;0;-9;-11;17081
1489080;1897;1815;97723;59;-78;0;-9;-11;17081
1490080;1634;1527;97747;61;-75;5;-9;-11;17081
1491076;1634;1767;99133;64;-67;5;-9;-11;17081
1492077;2208;2245;99276;64;-62;2;-9;-11;17081
1493079;2471;2078;98153;61;-67;2;-10;-11;17081
1494079;2280;1886;97604;59;-72;7;-10;-11;17081
1495076;1993;2222;97962;56;-72;10;-10;-11;17081
1496089;1849;2126;98488;56;-70;7;-10;-11;17081
1497079;2399;1958;98225;56;-62;0;-10;-11;17081
1498075;2399;1958;97962;61;-64;0;-10;-11;17081
1499076;2304;2030;97986;67;-64;5;-10;-11;17081
1500077;1921;1958;98583;72;-64;5;-10;-11;17081
1501078;1394;1551;98941;75;-64;2;-10;-11;17081
1502075;1394;1886;98129;75;-64;2;-10;-11;17081
1503076;1873;1958;97484;75;-67;5;-10;-11;17081
1504078;2495;1551;97723;77;-64;5;-10;-11;17081
1505078;1969;1575;98655;77;-62;0;-10;-11;17081
1506080;1969;1839;99085;80;-64;-5;-10;-11;17081
1507092;1993;2198;98607;80;-64;-8;-10;-11;17081
1508076;1993;2174;97890;80;-64;-5;-10;-11;17081
1509077;1849;1958;97532;80;-62;-2;-10;-11;17081
1510077;2017;1839;97843;80;-59;-5;-10;-11;17081
1511078;2256;1982;98344;83;-59;-13;-10;-11;17081
1512079;2256;2102;98679;83;-62;-18;-9;-11;17081
1513075;2567;1862;98655;83;-64;-13;-9;-10;17081
1514075;2399;1671;98464;80;-62;-5;-9;-10;17081
1515076;1945;1815;98153;80;-62;-8;-9;-10;17081
1516076;1945;2126;98201;80;-59;-16;-9;-10;17081
1517077;2208;1982;98058;77;-62;-18;-9;-10;17081
1518089;2471;1839;97986;72;-67;-16;-9;-10;17081
1519079;2423;1886;98535;69;-70;-13;-9;-10;17081
1520075;2423;1695;98894;67;-70;-8;-9;-10;17081
1521075;2064;1743;98798;61;-75;0;-9;-10;17080
1522076;2017;2102;98583;59;-78;2;-9;-10;17080
1523077;2160;2198;98416;61;-80;2;-9;-10;17081
1524078;2160;2198;97819;64;-80;-2;-9;-11;17081
1525078;1921;1934;97843;64;-80;-5;-9;-11;17080
1526079;1993;1743;98607;61;-83;-2;-10;-11;17080
1527079;1921;2030;98846;59;-83;-2;-10;-11;17080
1528075;2088;2126;98559;56;-83;-2;-10;-11;17080
1529093;2064;2389;98177;56;-78;-5;-10;-11;17080
1530077;2064;2245;98320;61;-72;-5;-10;-11;17080
1531078;1777;1815;98392;67;-70;-2;-10;-11;17080
1532079;2088;1695;98105;75;-72;0;-10;-11;17080
1533075;2088;1791;98129;77;-72;2;-10;-11;17080
1534075;2304;2126;98081;80;-70;5;-10;-11;17080
1535076;1897;1886;98320;88;-62;5;-10;-11;17080
1536076;1897;1815;98750;88;-57;0;-10;-11;17080
1537077;2088;2126;98392;85;-57;-2;-10;-11;17080
1538077;2687;2198;97962;80;-59;-5;-10;-11;17080
1539090;2806;2078;97938;77;-59;0;-9;-11;17080
1540080;2136;1695;98177;72;-57;5;-9;-11;17080
1541076;2567;1958;98511;72;-54;5;-9;-11;17080
1542076;2567;2198;98559;75;-57;2;-9;-11;17080
1543077;2064;1982;98607;75;-64;0;-9;-10;17080
1544077;2375;1743;98870;75;-67;0;-9;-10;17080
1545079;1849;1743;98965;75;-67;0;-9;-10;17080
1546079;1538;2006;98488;75;-62;-2;-9;-10;17080
1547080;2352;2222;98081;75;-62;-5;-9;-10;17080
1548079;2687;1958;98296;69;-57;-5;-9;-10;17080
1549093;2328;1551;98894;69;-57;-2;-9;-10;17080
1550077;2184;1312;98989;67;-59;-2;-9;-10;17080
1551078;2088;1671;98225;61;-62;-5;-9;-10;17080
1552079;2136;1982;98129;59;-62;-5;-10;-10;17080
1553075;2471;1695;98583;56;-62;-8;-10;-10;17080
1554076;1729;1527;98440;54;-62;-8;-10;-10;17080
1555078;1586;1647;98440;51;-62;-8;-10;-10;17080
1556079;2160;2078;98559;51;-67;-5;-10;-10;17080
1557075;1897;2126;98607;54;-70;-10;-10;-10;17080
1558075;2088;2150;98941;59;-70;-13;-10;-10;17080
1559089;1825;2245;99061;67;-72;-16;-10;-10;17080
1560079;1442;2006;98583;72;-83;-13;-10;-10;17080
1561075;1873;1815;97795;75;-91;-10;-10;-10;17080
1562076;2352;1886;98129;80;-94;-8;-10;-11;17080
1563078;2399;1910;98750;88;-94;-5;-10;-11;17080
1564078;2280;2102;98368;91;-91;-2;-10;-11;17080
1565080;2304;2006;98177;85;-94;-2;-10;-11;17080
1566075;2304;1910;98201;75;-94;-2;-10;-11;17080
1567077;1825;1886;97986;69;-91;-2;-10;-11;17080
1568077;1490;1982;97843;67;-86;0;-10;-11;17080
1569092;2017;2509;97890;67;-80;2;-10;-11;17080
1570078;1849;2365;98105;67;-78;5;-10;-12;17080
1571078;2256;2198;98368;69;-80;10;-10;-12;17080
1572079;2280;2365;98368;75;-86;7;-10;-12;17080
1573079;2017;2054;98344;75;-83;7;-10;-12;17080
1574075;2088;1886;98296;75;-86;7;-10;-12;17080
1575080;1897;1982;98153;72;-88;10;-10;-12;17080
1576076;1921;1910;97651;75;-88;10;-10;-12;17080
1577076;1945;1862;97747;77;-86;10;-10;-12;17080
1578077;2519;2102;98750;75;-80;13;-10;-12;17080
1579163;2567;2341;99061;72;-72;18;-10;-12;17080
1580078;2136;2389;98368;75;-72;23;-10;-12;17080
1581079;2088;2676;97508;83;-72;18;-10;-12;17080
1582075;1466;2365;97675;88;-75;15;-10;-12;17080
1583075;1586;1527;98273;85;-72;15;-10;-12;17081
1584076;1586;1479;98511;85;-64;15;-10;-12;17081
1585076;2088;2006;98416;85;-59;15;-10;-12;17081
1586077;2399;2222;98010;83;-59;13;-9;-12;17081
1587077;2040;2222;98249;77;-59;5;-9;-12;17081
1588078;2017;2102;98798;75;-59;2;-9;-12;17081
1589096;2471;2030;98416;75;-57;0;-9;-12;17081
1590089;2232;2245;97054;72;-62;0;-9;-12;17081
1591157;2088;2317;96935;67;-67;0;-9;-12;17081
1592077;1969;1982;98368;64;-64;2;-9;-12;17081
1593078;2567;1791;98965;59;-57;2;-9;-12;17081
1594079;2567;2174;98679;59;-54;2;-9;-12;17081
1595079;1610;2174;98058;59;-57;2;-9;-12;17081
1596080;1394;1862;97866;59;-57;0;-10;-11;17081
1597080;1107;1599;98368;61;-57;2;-10;-11;17081
1598075;1658;2006;98655;61;-59;2;-10;-11;17081
1599075;1921;2581;98488;61;-64;5;-10;-11;17081
1600076;1945;2485;98416;61;-70;10;-10;-11;17081
1601086;2304;2341;98750;59;-72;10;-10;-11;17081
1602089;1538;2078;98918;59;-78;7;-10;-11;17081
1603079;1610;2174;98726;59;-83;2;-10;-11;17081
1604075;1825;2461;98129;61;-80;0;-10;-11;17081
1605080;1203;2054;97699;64;-78;0;-10;-11;17081
1606076;1801;1719;98153;69;-75;0;-10;-11;17081
1607076;1969;1743;99013;69;-72;2;-10;-11;17081
1608077;1753;2198;99300;64;-72;2;-10;-11;17081
1609077;2256;2533;98822;64;-78;0;-10;-11;17081
1610078;1562;1839;98273;64;-80;-5;-10;-11;17081
1611079;1370;1432;97866;67;-80;-8;-10;-11;17081
1612075;1705;1623;97986;72;-78;-10;-10;-11;17081
1613090;1777;1647;98392;77;-72;-13;-10;-11;17081
1614075;2495;1695;98368;80;-70;-13;-10;-11;17081
1615075;2639;1862;98129;80;-67;-8;-10;-11;17081
1616076;2088;2006;98535;75;-70;-8;-10;-11;17081
1617077;1562;2078;99061;72;-72;-5;-10;-11;17081
1618078;1347;1886;98941;69;-78;-5;-10;-11;17081
1619079;1993;2078;98368;72;-83;-2;-9;-11;17081
1620075;2136;2245;97771;72;-83;-2;-9;-11;17081
1621075;1634;2054;97962;69;-83;-5;-9;-11;17081
1622077;1897;2126;98774;64;-80;-8;-9;-12;17081
1623078;2280;2533;99371;64;-80;-8;-9;-12;17081
1624092;1969;2652;98894;61;-86;-5;-9;-12;17081
1625077;1897;2078;98344;61;-96;0;-10;-12;17081
1626078;2136;1743;98440;61;-99;2;-10;-12;17081
1627079;2040;1886;98368;56;-94;2;-10;-12;17081
1628075;1897;1958;98273;59;-83;0;-10;-12;17081
1629075;2256;2245;98225;59;-78;-2;-10;-12;17081
1630077;2136;2437;98583;59;-78;-8;-10;-12;17081
1631077;1490;2078;99133;59;-78;-10;-10;-12;17080
1632079;1825;2150;98965;59;-78;-10;-10;-12;17080
1633080;1634;2198;98344;61;-72;-5;-10;-12;17080
1634090;1921;2198;97675;61;-75;-2;-10;-12;17080
1635091;2304;2269;97556;67;-75;0;-10;-12;17080
1636075;2064;2269;98034;69;-80;-2;-10;-12;17080
1637076;2423;2365;99013;69;-83;-2;-10;-12;17080
1638075;1801;2174;99276;69;-86;-2;-10;-12;17080
1639076;2017;2365;98511;67;-88;-2;-10;-12;17080
1640077;2399;2485;98081;69;-83;-2;-10;-13;17080
1641078;1658;2293;97890;69;-80;-2;-10;-13;17080
1642078;2112;2341;98153;64;-80;-8;-10;-13;17080
1643079;2328;2317;98726;61;-83;-5;-10;-13;17080
1644079;2902;2461;98464;59;-86;-5;-10;-13;17080
1645075;2447;2509;97938;59;-88;-2;-10;-13;17080
1646092;772;2509;98296;56;-88;0;-10;-13;17080
1647077;1299;2724;98750;51;-88;-5;-10;-13;17080
1648077;1418;2269;98368;51;-86;-13;-10;-13;17080
1649078;2208;2317;97604;56;-83;-13;-10;-13;17080
1650078;2806;2676;97651;61;-78;-5;-10;-13;17080
1651079;1442;2102;98535;64;-70;5;-10;-13;17080
1652075;1825;2365;99037;67;-64;5;-10;-13;17080
1653076;1873;2628;98225;67;-64;-5;-10;-13;17080
1654076;1418;2509;97413;64;-70;-13;-10;-13;17080
1655077;1825;2652;97819;67;-72;-10;-10;-13;17080
1656077;1394;2437;98249;72;-72;-2;-10;-13;17080
1657093;1945;2269;98201;77;-67;2;-10;-13;17080
1658077;2710;2269;98225;80;-70;2;-10;-13;17080
1659078;2328;2293;98153;77;-70;0;-10;-13;17080
1660078;2088;2174;98129;72;-67;0;-10;-13;17080
1661079;1873;2174;98679;67;-67;2;-10;-13;17080
1662080;1825;2222;98726;64;-70;-2;-10;-13;17080
1663075;1945;2150;97866;61;-78;-5;-10;-13;17080
1664075;2423;2150;97556;61;-80;-5;-10;-13;17080
1665077;2304;2245;98058;61;-75;-2;-10;-13;17080
1666077;1753;2222;98535;64;-70;0;-10;-12;17080
1667078;1897;2461;98416;69;-67;5;-10;-12;17080
1668091;2112;2628;98344;75;-67;5;-10;-12;17080
1669075;1969;2150;98511;75;-67;5;-10;-12;17080
1670076;1634;1695;98368;75;-67;5;-9;-12;17080
1671076;1993;1886;98058;72;-64;7;-9;-12;17080
1672077;2495;2269;97866;69;-62;2;-9;-12;17080
1673077;2328;2174;98010;69;-62;2;-9;-12;17080
1674079;2136;2102;98440;72;-59;2;-9;-12;17080
1675079;1658;2198;99156;72;-57;-5;-9;-12;17080
1676080;1849;2245;99061;72;-57;-8;-9;-12;17080
1677080;2136;2245;97890;69;-57;-8;-9;-12;17080
1678075;2136;2269;97317;72;-59;-8;-9;-12;17080
1679088;2519;2102;98010;72;-67;-8;-9;-12;17080
1680078;2878;2054;98774;69;-72;-5;-9;-11;17080
1681079;2710;2198;98822;69;-72;-5;-9;-11;17080
1682079;2471;2030;98129;69;-67;-2;-9;-11;17080
1683075;2160;2054;97699;64;-67;0;-9;-11;17080
1684076;1514;2198;98034;56;-67;2;-9;-11;17080
1685078;2112;2222;98320;54;-70;2;-9;-11;17080
1686079;2256;2102;98392;56;-70;5;-9;-11;17080
1687075;2040;2006;97986;56;-67;7;-9;-11;17080
1688075;2375;2269;97962;54;-62;13;-9;-11;17080
1689077;2256;2341;98607;56;-62;15;-10;-11;17080
1690094;1969;2269;98655;61;-64;13;-10;-11;17080
1691091;1705;2126;98320;64;-67;7;-10;-11;17080
1692077;1370;1934;98129;61;-70;5;-10;-11;17080
1693078;1634;1839;98201;64;-72;5;-10;-11;17080
1694079;2184;1910;98416;64;-75;5;-10;-11;17080
1695075;2519;2413;98488;61;-78;5;-10;-11;17080
1696075;2040;2126;98726;64;-80;0;-10;-11;17080
1697077;1682;1910;98894;67;-83;0;-10;-11;17080
1698077;1729;2006;98464;69;-83;2;-10;-11;17080
1699079;1586;1910;98105;72;-86;2;-10;-12;17080
1700079;2017;2365;98201;75;-88;2;-10;-12;17080
1701075;1801;2389;98273;77;-83;5;-10;-12;17080
1702089;2088;2078;98320;75;-80;5;-10;-12;17080
1703078;2639;2365;98535;75;-80;5;-10;-12;17080
1704079;2256;2605;98750;75;-78;2;-10;-12;17080
1705079;2112;2365;98416;77;-75;7;-10;-12;17080
1706075;1610;2030;97938;75;-78;13;-10;-12;17080
1707075;1610;1767;97986;72;-78;10;-10;-12;17080
1708076;2232;1815;98010;69;-72;5;-10;-12;17080
1709076;2280;2078;98225;67;-67;0;-10;-12;17080
1710077;2399;2389;98440;64;-64;-2;-10;-12;17080
1711077;2352;2365;98535;64;-64;0;-10;-12;17080
1712079;1921;2030;98726;64;-64;5;-10;-12;17080
1713092;1634;1910;98273;64;-62;2;-10;-12;17080
1714076;1658;1982;97890;67;-62;2;-10;-12;17080
1715077;1921;2030;98058;67;-64;2;-10;-12;17080
1716077;2160;2198;98058;64;-70;2;-10;-12;17080
1717079;2495;2461;98559;61;-75;0;-10;-12;17080
1718078;2447;2293;99180;67;-78;-2;-10;-12;17080
1719080;1801;2078;98655;69;-78;-2;-10;-12;17080
1720079;1801;2293;97914;69;-78;2;-10;-12;17080
1721075;1753;2245;97914;69;-75;10;-10;-12;17080
1722076;2136;2341;98081;67;-72;10;-10;-12;17081
1723077;2543;2628;98201;61;-72;13;-10;-12;17081
1724109;2040;2389;98344;61;-72;13;-10;-12;17081
1725078;2256;2245;98416;64;-72;15;-10;-12;17081
1726078;2184;2150;98440;67;-72;15;-10;-12;17081
1727079;1825;2102;98392;64;-72;13;-10;-12;17081
1728079;2160;2389;98129;64;-70;7;-10;-12;17081
1729080;2112;2006;97628;67;-67;0;-10;-12;17081
1730080;2495;1839;97675;72;-62;2;-10;-12;17081
1731076;2639;2078;98153;77;-59;5;-10;-11;17081
1732077;2184;2078;98464;80;-62;5;-10;-11;17081
1733078;2184;2413;98416;80;-67;0;-10;-11;17081
1734078;1490;2126;98034;77;-72;-2;-9;-11;17081
1735079;1466;1623;97771;80;-72;-2;-9;-11;17081
1736090;2160;1743;98153;83;-70;-5;-9;-11;17081
1737080;1945;1910;98583;80;-70;-5;-9;-11;17081
1738075;1873;1719;98583;75;-70;-2;-9;-11;17081
1739075;2591;1719;98918;69;-70;0;-9;-11;17081
1740076;2615;1934;99061;64;-67;-2;-9;-11;17081
1741077;2064;2198;98726;64;-64;-5;-9;-11;17081
1742078;2040;2389;98273;61;-59;-5;-9;-11;17081
1743078;1801;2102;97771;56;-54;-5;-9;-11;17081
1744079;1825;1815;97962;54;-54;-5;-9;-11;17081
1745079;2256;1886;98249;54;-54;-2;-10;-11;17081
1746075;2160;2006;98344;56;-57;-2;-10;-11;17081
1747093;2160;1934;98918;61;-57;-2;-10;-11;17081
1748078;2136;1982;99013;67;-59;-2;-10;-11;17081
1749079;1945;1695;98129;67;-59;-5;-10;-11;17081
1750075;2112;1743;97508;67;-59;-10;-10;-11;17081
1751076;1873;1958;97819;69;-64;-10;-10;-11;17081
1752078;1945;1671;98368;72;-67;-8;-10;-11;17081
1753079;2495;1671;98870;75;-67;-5;-10;-11;17081
1754075;2519;1910;99133;75;-67;-8;-10;-11;17081
1755075;2256;1910;98726;72;-67;-8;-10;-11;17080
1756077;1825;1767;98320;69;-64;-5;-10;-10;17080
1757089;1897;1958;98273;67;-64;-5;-10;-10;17080
1758090;2064;2174;98153;67;-70;-8;-10;-10;17080
1759080;2328;1862;98488;69;-75;-8;-10;-11;17080
1760076;2639;1599;98726;69;-75;-2;-10;-11;17080
1761077;2064;1671;98368;75;-75;-2;-10;-11;17080
1762079;2040;1719;98201;75;-78;-8;-10;-11;17080
1763079;2399;1910;97962;77;-83;-10;-10;-11;17080
1764076;1682;1886;98010;77;-80;-5;-10;-11;17080
1765076;2160;1862;98655;77;-75;0;-10;-11;17080
1766078;1945;1479;98631;77;-72;0;-10;-11;17080
1767078;1849;1886;98177;77;-70;0;-10;-11;17080
1768093;2806;2485;98249;77;-64;-2;-10;-11;17080
1769077;2208;2102;98488;80;-64;-2;-10;-11;17080
1770078;2352;2078;98464;80;-67;0;-10;-11;17080
1771079;2136;2078;98225;83;-70;2;-10;-11;17080
1772080;1705;2078;98105;83;-75;2;-10;-11;17080
1773075;2280;2245;98273;80;-78;0;-10;-11;17080
1774075;1777;1910;98201;80;-80;-2;-10;-11;17080
1775077;2328;1839;98081;77;-80;-5;-10;-11;17080
1776076;2782;2437;98368;72;-80;-8;-10;-11;17080
1777078;1825;2198;98392;69;-83;-5;-10;-11;17080
1778213;2471;1934;98320;69;-83;0;-10;-12;17080
1779076;2208;1767;98368;67;-78;2;-10;-12;17080
1780076;1729;1695;98201;64;-72;0;-10;-12;17080
1781077;2710;2030;98010;64;-67;-2;-10;-12;17080
1782078;2423;1791;98010;69;-64;-2;-10;-12;17080
1783079;2040;1791;98249;72;-64;0;-10;-12;17080
1784079;2208;2174;98583;72;-59;2;-10;-12;17080
1785080;1801;1743;98583;75;-57;2;-10;-12;17080
1786080;2160;1695;98010;75;-57;5;-10;-11;17080
1787076;2352;1958;97293;75;-59;10;-10;-11;17080
1788076;2088;1934;97436;72;-57;7;-10;-11;17080
1789092;2567;1862;98344;72;-51;2;-10;-11;17080
1790077;2328;1719;98846;72;-51;0;-10;-11;17080
1791224;2256;2102;98559;77;-57;2;-10;-11;17080
1792079;2375;1839;97986;77;-59;7;-10;-11;17080
1793079;2017;1671;97699;77;-62;7;-10;-11;17080
1794075;1825;2078;97890;75;-59;5;-10;-11;17080
1795075;2017;2102;98081;72;-59;2;-10;-11;17080
1796076;2256;2030;98344;72;-57;5;-10;-11;17080
1797076;2064;1958;98631;64;-54;10;-10;-11;17080
1798078;2160;1575;98726;56;-54;13;-10;-11;17080
1799078;1753;1264;98583;51;-59;13;-10;-11;17080
1800090;1562;2030;98153;54;-64;10;-10;-11;17081
1801075;1777;2389;97938;61;-70;5;-10;-11;17081
1802076;2088;1695;98105;67;-72;2;-10;-11;17081
1803078;2543;1288;98894;69;-70;5;-10;-11;17081
1804078;2208;1360;99348;72;-67;5;-10;-11;17081
1805079;2088;1767;98750;67;-64;7;-10;-11;17081
1806079;1897;1958;97866;64;-67;5;-10;-11;17081
1807075;1682;1791;98153;67;-70;5;-10;-11;17081
1808075;2184;2222;98750;69;-67;5;-10;-11;17081
1809076;2064;2102;98607;69;-64;7;-10;-11;17081
1810076;2136;1575;98344;72;-64;10;-10;-11;17081
1811092;2447;1719;98034;75;-62;10;-10;-11;17081
1812077;1897;1671;98296;83;-59;7;-10;-11;17081
1813078;1347;1767;98631;91;-59;2;-10;-11;17081
1814079;1705;2054;98511;93;-62;0;-10;-11;17081
1815075;1921;1862;98081;91;-67;0;-10;-11;17081
1816075;1658;1934;97508;88;-72;2;-10;-11;17081
1817077;1849;1958;97628;85;-72;-2;-10;-11;17081
1818077;2232;1623;98344;83;-70;-5;-10;-11;17081
1819079;2280;1886;98941;80;-67;-2;-10;-11;17081
1820079;2399;1982;98679;75;-72;-2;-10;-11;17081
1821092;2352;2078;98153;69;-72;-5;-10;-11;17081
1822077;1729;1982;98153;67;-72;-10;-10;-11;17081
1823079;1658;2006;98225;67;-72;-10;-10;-11;17081
1824079;1921;2150;98416;67;-72;-10;-10;-11;17081
1825076;2352;2126;98607;64;-72;-13;-10;-11;17081
1826076;2160;2126;98559;64;-72;-16;-10;-11;17081
1827078;1729;1743;98535;69;-75;-13;-10;-11;17081
1828079;1849;1934;98583;72;-70;-16;-10;-11;17080
1829075;1825;2006;98535;72;-70;-13;-10;-11;17080
1830075;1777;1862;98249;72;-72;-13;-10;-11;17080
1831092;2184;1815;98058;69;-72;-10;-10;-11;17080
1832078;2352;2006;98273;67;-67;-8;-10;-11;17080
1833078;2208;2293;98559;69;-64;-5;-10;-11;17080
1834079;2399;2174;98416;69;-67;-5;-10;-11;17080
1835078;2136;2006;98105;72;-67;-5;-10;-11;17080
1836080;1825;1719;98153;75;-70;-2;-10;-11;17080
1837079;1897;1815;98344;72;-72;0;-10;-11;17080
1838075;1682;1886;98273;72;-75;2;-10;-11;17080
1839075;2017;1958;97866;72;-72;2;-10;-11;17080
1840076;2495;2150;97723;72;-70;5;-10;-11;17080
1841091;2328;2293;98201;72;-64;7;-10;-11;17080
1842077;2256;2245;98894;75;-64;10;-10;-11;17080
1843077;1394;1527;98559;72;-70;7;-10;-11;17080
1844078;1299;1479;97890;72;-78;0;-10;-11;17080
1845078;2352;1934;97938;72;-80;-5;-10;-11;17080
1846079;2136;1982;98081;69;-78;-8;-10;-11;17080
1847079;2208;2198;98344;67;-72;-5;-10;-11;17080
1848075;2519;2341;98703;69;-67;0;-10;-11;17080
1849075;2017;2030;98726;69;-64;2;-10;-11;17080
1850076;1658;1958;98679;69;-70;-2;-10;-11;17080
1851092;1538;1862;98511;69;-78;-8;-10;-11;17080
1852077;1705;2030;98631;72;-80;-8;-10;-11;17080
1853078;1682;2006;98105;77;-80;-2;-10;-11;17080
1854078;1945;1479;97675;75;-86;2;-10;-11;17080
1855079;2639;1791;98464;72;-88;5;-10;-11;17080
1856079;2615;1982;99013;75;-86;7;-10;-11;17080
1857080;2399;2126;99133;77;-86;10;-10;-12;17080
1858080;1801;2437;98273;77;-91;13;-10;-12;17080
1859075;1705;2293;97484;69;-96;13;-10;-12;17080
1860076;2399;2245;97675;67;-94;13;-10;-12;17080
1861093;1969;2126;98010;64;-80;7;-10;-12;17080
1862079;2136;2078;98416;59;-70;5;-10;-12;17080
1863079;2280;1791;98511;59;-70;2;-10;-12;17080
1864075;1873;1862;98511;54;-72;2;-10;-12;17080
1865075;1897;2581;98535;51;-75;5;-10;-12;17080
1866077;1658;2365;98464;51;-75;0;-10;-12;17081
1867076;2328;2293;98105;54;-72;-5;-10;-12;17080
1868078;2088;2222;97675;61;-72;-8;-10;-12;17080
1869078;1610;1886;97914;69;-75;-5;-10;-12;17080
1870079;2519;2198;98607;75;-75;-2;-10;-12;17080
1871079;2017;2557;98846;75;-75;0;-10;-12;17080
1872076;1753;2461;98368;69;-70;0;-10;-12;17080
1873089;1945;2102;97771;64;-70;0;-10;-12;17080
1874078;1849;2054;97771;67;-70;0;-10;-12;17080
1875079;2710;2341;98225;69;-70;2;-10;-12;17080
1876079;2208;2102;98296;69;-62;2;-10;-12;17080
1877075;2160;2102;98344;69;-59;2;-10;-12;17080
1878075;2328;2461;98440;69;-64;2;-10;-12;17080
1879076;1514;2485;98010;69;-70;5;-10;-12;17080
1880077;2064;2413;98105;69;-67;5;-10;-12;17080
1881078;1897;2078;98607;67;-62;7;-10;-12;17081
1882079;1705;1958;98488;67;-59;7;-10;-12;17081
1883076;2423;1862;97843;75;-62;2;-10;-12;17081
1884093;2184;1934;97604;77;-62;0;-10;-12;17081
1885077;1753;2365;98464;80;-59;0;-10;-12;17081
1886079;2088;2413;99204;80;-59;0;-10;-11;17081
1887079;2040;2341;98774;83;-62;2;-10;-11;17081
1888076;2328;2581;97843;85;-64;2;-10;-11;17081
1889076;2495;2605;97771;85;-67;2;-10;-11;17081
1890078;2112;1982;98320;88;-70;7;-10;-11;17081
1891079;2423;1958;98631;83;-75;10;-9;-11;17081
1892076;2112;2365;98320;77;-78;7;-9;-11;17081
1893077;2064;2341;97795;69;-86;2;-9;-11;17081
1894078;2184;2245;98368;59;-88;-2;-9;-11;17081
1895091;1801;2102;99037;56;-91;-2;-10;-12;17081
1896076;1490;2533;98440;56;-88;-2;-10;-12;17081
1897077;1466;2581;97604;59;-88;-5;-10;-12;17081
1898077;2184;2054;97341;61;-83;-5;-10;-12;17081
1899078;2232;1934;98225;64;-78;-2;-10;-12;17081
1900078;1969;2030;99109;56;-72;0;-10;-12;17081
1901079;2184;2341;98989;54;-72;0;-10;-12;17081
1902080;1993;2485;98511;54;-75;0;-10;-12;17081
1903075;1538;2389;98010;51;-78;0;-10;-12;17081
1904075;1705;2437;98464;46;-80;-2;-10;-12;17081
1905106;2136;1934;98965;46;-78;-8;-10;-12;17081
1906075;2447;1767;98511;51;-75;-13;-10;-12;17081
1907075;2399;2461;98296;56;-75;-13;-10;-12;17080
1908076;1873;2509;98559;61;-75;-10;-10;-12;17080
1909076;1825;2126;98583;64;-75;-8;-10;-12;17080
1910078;2040;2245;98368;72;-75;-5;-10;-12;17080
1911078;2232;2485;97819;77;-75;-5;-10;-12;17080
1912075;2136;2341;97341;77;-75;-8;-10;-12;17080
1913075;2519;2006;97819;75;-83;-10;-10;-12;17080
1914076;2663;1934;98440;69;-83;-13;-10;-12;17080
1915076;2040;2365;98559;61;-80;-10;-10;-12;17080
1916089;2160;2652;98034;64;-75;-5;-10;-12;17080
1917080;2040;2413;97604;67;-72;0;-10;-12;17080
1918080;1538;1958;97986;67;-70;0;-10;-12;17080
1919075;2328;2150;98464;67;-64;-5;-10;-12;17080
1920075;2423;2533;98368;69;-67;-10;-10;-12;17080
1921076;1658;2365;98153;67;-75;-13;-10;-12;17080
1922077;1777;2174;98296;69;-75;-13;-10;-12;17080
1923078;1873;2198;98511;75;-70;-10;-10;-12;17080
1924078;2088;2413;98511;77;-70;-2;-10;-12;17080
1925079;2160;2509;98296;77;-67;2;-10;-12;17080
1926079;2304;2413;97986;77;-67;2;-10;-12;17080
1927093;2758;2341;98081;75;-67;0;-10;-12;17080
1928077;2112;2652;98225;75;-67;2;-10;-12;17080
1929078;2040;2365;98201;75;-72;5;-10;-12;17080
1930079;1993;2078;98201;69;-78;10;-10;-12;17080
1931079;1370;2102;98081;61;-83;10;-10;-12;17080
1932076;2017;2198;97962;59;-86;13;-10;-12;17080
1933076;1921;2413;97962;61;-88;18;-10;-12;17080
1934077;1610;2174;98249;61;-86;21;-10;-12;17080
1935077;2088;2150;98320;59;-80;18;-10;-12;17080
1936078;1993;2126;98129;54;-72;13;-10;-12;17080
1937088;1753;2389;98225;48;-70;13;-10;-12;17080
1938079;1897;2461;98535;46;-70;7;-10;-12;17080
1939079;1490;2365;98511;43;-64;2;-10;-12;17080
1940080;1370;2557;98177;48;-62;0;-10;-12;17080
1941080;1921;2557;97819;54;-59;0;-10;-12;17080
1942077;1969;2006;97795;61;-57;2;-10;-12;17080
1943077;1969;1743;98034;67;-57;7;-10;-12;17081
1944078;1777;2269;98225;64;-62;7;-10;-11;17081
1945079;1897;2317;98129;64;-64;10;-10;-11;17081
1946075;2232;2293;97795;64;-67;10;-10;-11;17081
1947090;1777;2102;98153;67;-70;10;-10;-11;17081
1948075;2040;1647;98679;69;-72;5;-10;-11;17081
1949076;2208;1695;98392;72;-75;2;-10;-11;17081
1950077;1993;2293;97819;77;-78;0;-10;-11;17081
1951078;1969;2509;97484;77;-80;0;-10;-11;17081
1952075;2064;1958;98105;75;-80;-2;-10;-11;17081
1953076;2519;2030;98703;77;-83;-5;-10;-11;17081
1954078;1969;2198;98440;80;-91;-2;-10;-11;17081
1955078;1299;2102;98034;80;-96;2;-10;-12;17081
1956080;2088;1934;98058;77;-91;7;-10;-12;17081
1957075;2375;1695;98416;75;-83;5;-10;-12;17081
1958088;2280;2126;98464;72;-75;0;-10;-12;17081
1959078;2184;2413;98177;72;-75;0;-10;-12;17081
1960080;2112;2030;98201;72;-72;2;-10;-12;17081
1961075;1993;2030;98679;69;-70;-2;-10;-12;17081
1962077;1705;2102;98273;67;-70;-13;-10;-12;17081
1963077;2423;2198;97628;67;-70;-18;-10;-12;17081
1964078;2160;2078;98010;69;-70;-16;-10;-12;17081
1965077;1562;1695;98846;72;-70;-10;-10;-12;17080
1966078;2160;1910;98918;69;-72;-8;-10;-12;17080
1967078;2304;2150;98416;67;-72;-10;-10;-12;17080
1968089;2232;2389;98105;67;-72;-10;-10;-12;17080
1969079;1777;2461;97747;67;-78;-10;-10;-12;17080
1970079;1466;2126;97986;64;-86;-10;-10;-12;17080
1971075;2232;1982;98273;61;-88;-10;-10;-12;17080
1972076;2256;1982;97866;59;-88;-10;-10;-12;17080
1973077;2112;2222;98058;59;-91;-8;-10;-12;17080
1974077;2280;2365;98320;54;-88;-5;-10;-12;17080
1975079;1969;2198;98201;54;-86;0;-10;-12;17080
1976079;1897;2413;98225;56;-83;7;-10;-12;17080
1977080;1753;2365;97914;56;-83;13;-10;-12;17080
1978079;1849;2030;97604;59;-78;13;-10;-12;17080
1979075;2088;2078;98153;67;-70;7;-10;-12;17080
1980093;1729;2198;98559;69;-64;5;-10;-12;17080
1981078;2184;2437;98201;67;-62;0;-10;-12;17080
1982079;2304;2557;98058;64;-62;-5;-10;-12;17080
1983079;1801;2293;98296;67;-62;-8;-10;-12;17080
1984075;1801;2150;98511;69;-64;-8;-10;-12;17080
1985075;1514;1958;98368;77;-64;-5;-10;-12;17080
1986076;1969;1958;98034;80;-62;-2;-10;-12;17080
1987077;2615;2198;97962;80;-62;2;-10;-12;17080
1988078;2423;2293;98249;77;-64;7;-10;-12;17080
1989078;1729;2389;98607;77;-64;10;-10;-12;17080
1990089;1442;2317;98488;77;-64;5;-10;-12;17080
1991079;1897;2269;98034;77;-64;5;-10;-12;17080
1992075;1969;2198;98010;75;-64;7;-10;-12;17080
1993076;2017;2102;98177;69;-64;7;-10;-12;17080
1994079;2088;2126;98177;69;-62;2;-10;-11;17080
1995075;1849;1958;98368;72;-59;2;-10;-11;17080
1996075;1993;2078;98440;75;-57;2;-9;-11;17080
1997076;2136;1982;98249;72;-57;2;-9;-11;17080
1998076;1993;2006;97795;69;-57;5;-9;-11;17080
1999077;2112;2198;97771;67;-54;5;-9;-11;17080
2000077;1993;1767;98416;67;-51;5;-9;-11;17080
2001089;2112;1551;98870;64;-49;2;-9;-11;17080
2002080;2256;1599;98941;64;-49;0;-9;-11;17080
2003075;2232;1934;98822;69;-51;0;-9;-10;17080
2004075;1897;2317;98392;72;-59;2;-9;-10;17080
2005076;1610;2461;98153;67;-64;7;-9;-10;17081
2006077;2328;2461;98440;61;-67;5;-9;-10;17081
2007078;2208;2365;98464;56;-67;0;-9;-10;17081
2008078;1538;2222;98129;56;-67;-2;-10;-10;17081
2009079;2232;1839;98153;54;-67;0;-10;-10;17081
2010079;2064;1456;98607;51;-67;5;-10;-10;17081
2011092;1993;1886;98440;51;-70;2;-10;-10;17081
2012079;2112;2509;97914;54;-70;2;-10;-10;17081
2013080;1442;2605;97795;54;-72;2;-10;-10;17081
2014076;1658;2198;98249;56;-72;2;-10;-10;17081
2015076;1610;1623;98655;59;-72;0;-10;-10;17081
2016078;1705;1647;98655;64;-75;0;-10;-10;17081
2017079;2352;2078;98416;64;-72;2;-10;-10;17081
2018075;1921;1934;98559;64;-70;0;-10;-10;17081
2019076;1921;2030;98798;61;-67;0;-10;-10;17081
2020077;1969;2198;98320;59;-64;0;-10;-10;17081
2021078;1658;2006;97938;61;-64;2;-10;-10;17081
2022088;2040;1886;97986;72;-62;0;-10;-10;17081
2023078;1586;1862;98464;77;-62;-2;-10;-10;17081
2024080;2160;2245;98798;83;-67;0;-10;-10;17081
2025075;2615;2150;98368;83;-72;-2;-10;-10;17081
2026076;2088;1910;97819;83;-75;-5;-10;-10;17081
2027077;2687;2102;98129;83;-75;-5;-10;-10;17081
2028078;2088;1910;98464;80;-75;-2;-10;-10;17081
2029079;1897;1671;98320;80;-75;-2;-10;-10;17081
2030080;3069;2078;98201;85;-78;-2;-10;-10;17080
2031079;2184;2054;98129;83;-78;-2;-10;-10;17080
2032075;1993;1695;98440;75;-70;-2;-10;-10;17080
2033089;2758;1695;98535;72;-67;-5;-10;-10;17080
2034079;2160;1958;98249;72;-67;-2;-10;-10;17080
2035080;1753;2222;98034;69;-64;-2;-10;-10;17080
2036080;1538;2198;98464;69;-59;-5;-10;-10;17080
2037075;2112;2006;99252;72;-59;-5;-10;-10;17080
2038075;2399;2198;98798;72;-64;-2;-10;-10;17080
2039076;2423;2222;97795;72;-70;0;-10;-10;17080
2040076;2352;1910;98058;64;-72;-2;-10;-10;17080
2041078;1777;1862;98750;64;-72;-5;-10;-10;17080
2042079;1825;1934;98798;64;-72;-5;-10;-10;17080
2043080;1490;1886;98201;64;-75;-5;-10;-10;17080
2044092;1849;2102;97890;67;-75;-5;-10;-10;17080
2045076;2447;2126;98129;75;-75;-5;-10;-10;17080
2046077;1945;1815;98416;80;-78;-5;-10;-10;17080
2047077;2543;2102;98535;80;-80;-5;-10;-10;17080
2048079;2782;1958;98440;80;-83;-5;-10;-10;17080
2049078;1873;2078;98058;75;-83;-5;-10;-10;17080
2050080;2088;2317;97866;69;-80;-5;-10;-10;17080
2051080;2375;2174;98273;61;-78;-8;-10;-10;17080
2052076;2136;2198;98464;61;-78;-2;-10;-10;17080
2053076;2447;2269;98177;59;-78;7;-10;-11;17080
2054077;2543;2389;98105;54;-75;13;-10;-11;17080
2055090;2328;2054;98153;48;-78;13;-10;-11;17080
2056080;1945;1910;98105;51;-78;13;-10;-11;17080
2057076;1299;2126;98344;51;-78;10;-10;-11;17080
2058075;1394;1958;98344;51;-75;7;-10;-11;17080
2059077;1682;1934;98273;54;-78;2;-10;-11;17080
2060077;1705;2222;98153;61;-78;0;-11;-11;17080
2061078;1729;2245;98034;69;-75;0;-11;-11;17080
2062078;1873;1695;98464;69;-67;0;-11;-11;17080
2063080;2256;1623;98703;67;-62;0;-11;-11;17080
2064080;2304;2245;98129;67;-64;2;-11;-11;17080
2065075;1705;2198;97866;72;-70;7;-11;-11;17080
2066092;1442;1719;98559;72;-72;13;-11;-11;17080
2067076;1705;1575;99133;75;-72;15;-10;-11;17081
2068077;2375;2006;98941;75;-75;18;-10;-11;17081
2069077;2088;2150;98129;69;-78;18;-10;-11;17081
2070079;1849;1791;97843;64;-78;15;-10;-11;17081
2071079;2088;1719;98249;64;-78;13;-10;-11;17081
2072075;1347;2078;98464;69;-78;13;-10;-11;17081
2073080;1490;2293;98225;75;-75;13;-10;-11;17081
2074076;2040;1934;98010;77;-67;13;-10;-11;17081
2075076;2543;1862;98177;75;-64;15;-10;-11;17081
2076093;2974;2317;98631;77;-70;10;-10;-11;17081
2077077;2184;2102;98655;75;-67;0;-10;-11;17081
2078079;1610;1599;98129;77;-62;-8;-10;-11;17081
2079079;2136;1719;97771;77;-57;-8;-10;-11;17081
2080075;1729;1791;97699;72;-54;-2;-10;-11;17081
2081076;1873;1839;97938;69;-57;-2;-10;-10;17081
2082078;2998;2293;98440;69;-64;-5;-10;-10;17081
2083079;2519;2126;98679;69;-70;-8;-10;-10;17081
2084075;2375;1862;98559;72;-75;-5;-10;-10;17081
2085075;2112;1719;98392;69;-78;2;-10;-11;17081
2086077;1012;1527;98105;67;-83;5;-10;-11;17081
2087093;1610;1910;97986;69;-91;2;-10;-11;17081
2088078;2232;2030;98344;75;-88;-2;-10;-11;17081
2089079;2304;2030;98559;75;-86;-5;-10;-11;17081
2090080;2878;2102;98344;75;-88;-5;-10;-11;17081
2091076;2687;2413;98034;75;-83;-2;-10;-11;17081
2092077;2064;2485;97628;69;-75;-2;-10;-11;17081
2093079;2160;2030;97890;67;-72;-2;-10;-11;17081
2094080;2375;1743;98273;64;-72;-8;-10;-11;17081
2095080;1873;1958;98296;61;-70;-8;-10;-11;17081
2096079;1921;2198;98249;64;-62;-2;-10;-11;17081
2097090;2184;1958;98249;77;-57;-2;-10;-11;17081
2098080;1682;1934;98296;85;-51;-2;-10;-11;17081
2099075;2064;2078;98201;83;-51;-5;-10;-11;17081
2100076;2734;2150;98153;77;-54;-8;-10;-11;17081
2101076;1777;2150;98010;72;-51;-5;-10;-11;17081
2102077;1347;2293;98058;67;-51;-2;-10;-11;17081
2103077;1945;2245;98607;67;-51;0;-10;-11;17081
2104079;2280;2078;99013;72;-57;0;-10;-10;17081
2105079;2423;2245;98679;72;-62;2;-10;-10;17081
2106080;2232;2245;98153;69;-64;2;-10;-10;17081
2107080;2184;2341;98034;64;-67;5;-10;-10;17081
2108091;1634;2293;98153;59;-70;5;-10;-10;17081
2109075;1514;2293;98368;61;-72;5;-10;-10;17081
2110076;1873;2293;98750;67;-72;2;-10;-10;17081
2111076;1251;2006;98703;67;-75;-2;-10;-10;17081
2112078;1921;1958;98320;67;-78;-2;-10;-10;17081
2113078;2399;1886;98081;67;-78;-5;-10;-10;17081
2114079;1610;1839;97986;69;-75;-8;-10;-11;17081
2115079;2567;2341;98249;69;-75;-8;-10;-11;17081
2116080;2328;2317;98225;69;-75;-8;-10;-11;17081
2117080;1586;2198;98010;67;-75;-2;-10;-11;17081
2118090;2208;2341;98392;67;-70;-5;-10;-11;17081
2119079;2304;2078;98750;64;-67;-5;-10;-10;17081
2120075;2447;1862;98965;64;-67;-8;-10;-10;17080
2121075;1969;1695;98607;67;-67;-5;-10;-10;17080
2122076;1610;1815;97819;69;-70;-5;-10;-10;17080
2123076;2064;2054;97795;75;-70;-2;-10;-10;17080
2124078;2232;2054;98153;75;-72;-2;-10;-10;17080
2125078;2184;2102;98344;77;-75;0;-10;-10;17080
2126079;2615;2509;98607;80;-78;2;-10;-10;17080
2127079;2184;2245;98607;80;-80;0;-10;-10;17080
2128092;1705;1839;98296;80;-83;-5;-10;-11;17080
2129077;2184;1767;98249;80;-83;-8;-10;-11;17080
2130078;1777;1839;98034;77;-83;-8;-10;-11;17080
2131079;1921;2389;97843;75;-83;-5;-10;-11;17080
2132080;2304;2557;98273;67;-83;-2;-10;-11;17080
2133075;1945;2365;98703;59;-83;0;-10;-11;17080
2134075;2256;2150;98703;56;-83;0;-10;-11;17080
2135077;2328;2126;98464;59;-80;-2;-10;-11;17080
2136076;1777;2222;97914;61;-75;-2;-10;-11;17080
2137078;2064;2293;97771;69;-70;-5;-10;-11;17080
2138078;2088;2198;98320;72;-72;-5;-10;-11;17080
2139089;1658;1839;98583;72;-78;-2;-10;-11;17080
2140079;2208;1958;98583;69;-80;2;-10;-11;17080
2141080;1897;1886;98607;72;-83;2;-10;-11;17080
2142075;1777;1815;98201;69;-86;2;-10;-11;17080
2143077;2352;1767;97938;69;-88;0;-10;-11;17080
2144077;1849;1623;98081;69;-91;2;-10;-11;17080
2145079;1897;1958;98034;67;-88;2;-10;-12;17080
2146079;1897;2078;98177;64;-88;5;-10;-12;17080
2147075;2017;2174;98320;61;-88;5;-10;-12;17080
2148076;2352;2222;98750;59;-88;5;-10;-12;17080
2149093;2112;2341;98631;56;-86;0;-10;-12;17080
2150078;2017;2413;98034;56;-83;-8;-10;-12;17080
2151079;1729;2317;97819;56;-78;-13;-10;-12;17080
2152075;1179;2150;97628;56;-78;-13;-10;-12;17080
2153077;1418;2150;98320;56;-80;-10;-10;-12;17080
2154077;1921;2509;98655;56;-78;-8;-11;-12;17080
2155079;1897;2748;98607;56;-72;-8;-11;-12;17080
2156080;2017;2628;98918;59;-70;-8;-11;-12;17080
2157076;1753;2245;98511;64;-72;-10;-11;-12;17080
2158076;1514;1982;97938;72;-75;-10;-11;-12;17080
2159091;1897;1958;98153;77;-78;-8;-11;-12;17080
2160075;1634;2078;98177;83;-78;-8;-10;-12;17080
2161076;1658;2628;97986;85;-78;-5;-10;-12;17080
2162076;2423;3059;98081;88;-80;-2;-10;-12;17080
2163077;2208;2724;98416;88;-75;0;-10;-12;17080
2164078;1921;2413;98846;88;-72;2;-10;-12;17080
2165079;2208;2317;98464;88;-72;5;-10;-12;17080
2166079;1682;2078;97699;85;-75;10;-10;-12;17080
2167080;1993;1982;97604;85;-80;7;-9;-12;17080
2168080;2328;2317;98249;77;-78;5;-9;-12;17080
2169088;2136;2581;98989;67;-70;5;-9;-12;17080
2170079;2687;2796;99013;59;-62;2;-9;-12;17080
2171079;2040;2628;98535;56;-62;2;-9;-12;17080
2172076;1801;2317;98034;59;-67;5;-9;-12;17080
2173076;2136;2006;97938;61;-67;5;-9;-12;17080
2174077;1705;1767;98081;67;-64;5;-9;-12;17080
2175077;2256;2341;97580;67;-59;7;-9;-12;17080
2176078;2519;2652;97819;61;-57;10;-9;-11;17080
2177078;1993;2533;98655;56;-59;10;-9;-11;17080
2178080;2017;2533;98941;56;-62;7;-9;-11;17080
2179079;1682;2054;98655;64;-70;5;-9;-11;17080
2180091;2064;1934;97866;64;-78;5;-9;-11;17080
2181077;2232;2006;97269;64;-83;2;-9;-11;17080
2182077;2040;2054;97102;67;-83;0;-9;-11;17080
2183078;2017;2341;97675;72;-80;0;-9;-11;17080
2184078;1658;2341;98703;72;-75;0;-9;-11;17080
2185079;2184;2628;99133;67;-75;0;-9;-11;17080
2186080;2088;2700;98607;59;-80;2;-9;-11;17080
2187075;1227;2724;97890;54;-80;10;-9;-11;17080
2188075;1227;2437;97604;54;-78;13;-10;-11;17080
2189076;1514;2054;97914;56;-78;13;-10;-11;17080
2190077;2184;2222;98177;54;-78;18;-10;-11;17081
2191093;2710;2461;98105;51;-72;18;-10;-11;17081
2192078;1945;2605;98488;48;-70;13;-10;-11;17081
2193079;1179;2461;98822;46;-67;7;-10;-11;17081
2194079;1299;2078;98750;46;-67;2;-10;-11;17081
2195080;1610;1982;98296;48;-67;0;-10;-11;17081
2196080;1969;2198;97365;56;-67;-2;-10;-11;17081
2197075;2184;2150;97317;67;-70;0;-10;-11;17081
2198075;1897;2269;98368;69;-70;2;-10;-11;17081
2199076;1849;2389;99563;69;-70;2;-10;-11;17081
2200076;2256;2317;99348;75;-75;0;-10;-11;17081
2201093;1705;2437;98320;83;-80;2;-10;-11;17081
2202077;1299;2150;97986;83;-80;2;-10;-11;17081
2203078;2064;1791;97962;85;-78;2;-10;-11;17081
2204078;2136;2078;98368;88;-75;5;-9;-11;17081
2205075;2208;2413;98416;88;-75;7;-9;-11;17081
2206076;2519;2389;98201;85;-78;7;-9;-11;17081
2207077;2208;2365;98703;80;-80;10;-9;-11;17081
2208078;1442;2557;99204;72;-83;7;-9;-11;17081
2209079;1586;2461;98535;72;-88;2;-9;-11;17081
2210075;2208;2198;97556;72;-88;-2;-9;-11;17081
2211090;1849;2078;97484;69;-78;-8;-9;-11;17081
2212076;2017;1982;98392;64;-62;-13;-9;-11;17081
2213077;2447;2245;99252;61;-54;-16;-9;-11;17081
2214079;2088;2581;99109;59;-57;-18;-9;-11;17081
2215079;2040;2509;98559;59;-67;-13;-9;-11;17081
2216076;1777;2150;98440;64;-75;-8;-9;-11;17081
2217076;1418;1791;98488;72;-78;-5;-9;-11;17081
2218078;2017;1719;97962;75;-78;-2;-9;-11;17081
2219079;2471;1839;97795;77;-80;0;-9;-11;17081
2220075;2304;2174;98368;77;-78;2;-9;-11;17081
2221091;2280;2245;99085;72;-72;0;-9;-11;17081
2222090;2040;2198;99228;67;-72;0;-9;-11;17081
2223080;1849;2317;98535;59;-83;2;-9;-11;17081
2224076;2040;2605;97890;54;-88;5;-9;-11;17081
2225077;2088;2389;97819;48;-88;7;-9;-11;17081
2226077;2256;1719;98392;43;-83;5;-9;-11;17081
2227077;2423;1671;98822;43;-80;0;-9;-11;17081
2228077;2256;2198;98392;43;-80;-2;-9;-11;17081
2229078;1323;2293;97938;40;-78;2;-9;-11;17081
2230079;820;2078;98464;38;-75;7;-9;-11;17081
2231079;1347;2102;99109;40;-72;7;-10;-11;17081
2232075;1418;2245;98416;46;-70;0;-10;-11;17081
2233091;2017;2341;97293;56;-70;-5;-10;-11;17081
2234076;2543;1934;97413;61;-67;-5;-10;-11;17081
2235077;1945;1671;98440;61;-62;-5;-10;-11;17081
2236078;1945;2054;99180;59;-57;-5;-10;-11;17081
2237079;1729;2365;98798;56;-59;-5;-10;-11;17081
2238080;1394;2222;97890;59;-64;-5;-10;-11;17081
2239080;2017;2078;97866;67;-72;-5;-10;-11;17081
2240075;2375;2174;98535;75;-78;-2;-10;-11;17080
2241076;2663;2437;98559;75;-80;5;-10;-11;17081
2242077;3093;2341;98058;75;-83;7;-10;-11;17081
2243088;2328;2317;97723;69;-83;5;-10;-11;17081
2244079;1490;2485;97699;64;-86;7;-10;-11;17081
2245078;1801;2198;98511;61;-88;5;-10;-11;17081
2246079;1825;2150;98822;64;-86;5;-10;-11;17081
2247080;1610;2102;97866;67;-80;13;-10;-11;17081
2248075;2663;1934;97293;69;-78;15;-10;-11;17081
2249075;2806;2030;97866;72;-78;10;-10;-11;17081
2250076;2064;2054;98416;69;-72;5;-10;-11;17081
2251077;2088;2222;98416;69;-70;2;-10;-11;17081
2252078;1442;2533;98344;69;-67;0;-10;-11;17081
2253078;1131;2605;97914;72;-64;0;-10;-11;17081
2254101;1897;2054;97843;77;-64;-2;-10;-11;17081
2255075;2423;1839;98583;77;-67;-10;-10;-11;17081
2256076;3045;1982;98846;80;-70;-13;-10;-11;17081
2257077;3189;1839;98368;83;-70;-13;-9;-11;17081
2258077;2040;2078;98034;80;-67;-10;-9;-11;17081
2259078;1658;2150;98081;77;-70;-8;-9;-11;17081
2260078;1993;2078;98464;67;-72;-10;-9;-11;17081
2261080;2232;2245;98511;61;-70;-10;-9;-11;17080
2262075;2710;2102;97962;61;-72;-5;-9;-11;17080
2263076;2256;1695;97986;61;-78;0;-9;-11;17080
2264090;1825;1671;98655;59;-78;5;-10;-11;17080
2265090;2352;2126;99061;56;-72;7;-10;-11;17081
2266080;1993;2341;98679;54;-70;7;-10;-11;17081
2267075;1394;2198;98034;54;-70;7;-10;-11;17081
2268075;1490;2150;97938;54;-70;5;-10;-11;17081
2269076;1610;2150;98344;59;-70;7;-10;-11;17081
2270076;2232;1910;98703;72;-70;7;-10;-11;17081
2271078;2567;1862;98368;80;-70;5;-10;-11;17081
2272079;2136;2030;97914;85;-67;0;-10;-11;17081
2273075;2160;1958;97914;83;-64;-2;-10;-11;17081
2274075;2040;1958;98416;77;-62;-2;-10;-11;17081
2275077;1801;2341;98774;72;-62;-2;-10;-11;17081
2276093;2064;2605;98583;77;-64;-5;-10;-11;17081
2277078;1897;2365;97914;80;-67;-2;-10;-11;17081
2278079;2184;1910;97771;80;-67;0;-10;-11;17081
2279080;2830;1815;98201;77;-64;-5;-10;-11;17081
2280076;2375;1743;98129;72;-64;-10;-9;-11;17081
2281076;1921;1910;97890;64;-67;-13;-10;-11;17080
2282079;1562;2269;98296;54;-70;-13;-10;-11;17080
2283079;1275;2054;99061;48;-67;-5;-10;-11;17080
2284076;1753;1647;98726;48;-62;-2;-10;-11;17080
2285076;2232;1862;97628;59;-67;2;-10;-11;17080
2286078;2399;1815;98153;59;-67;0;-10;-11;17080
2287091;2256;1839;99037;59;-62;0;-10;-11;17080
2288075;1753;1862;99276;59;-57;0;-10;-11;17080
2289077;1107;2006;98822;59;-57;0;-10;-10;17080
2290077;1801;2006;98320;59;-62;-2;-10;-10;17080
2291079;2352;1815;98249;61;-64;-8;-10;-10;17080
2292079;2208;1862;98440;67;-59;-13;-10;-10;17080
2293080;2567;2078;98583;75;-54;-10;-10;-10;17080
2294079;1993;2293;98249;83;-57;-5;-10;-10;17080
2295075;1227;2413;97914;83;-59;-2;-10;-10;17080
2296075;1442;1982;98105;88;-62;-5;-10;-10;17080
2297165;1466;1743;98607;91;-62;-8;-10;-10;17080
2298080;1729;2078;98535;91;-64;-10;-10;-10;17080
2299080;2663;2006;97986;88;-67;-10;-10;-10;17080
2300076;2782;1767;98058;85;-64;-10;-10;-10;17080
2301076;2471;1671;98392;83;-62;-8;-10;-10;17080
2302078;2399;1934;98607;80;-62;-8;-10;-10;17080
2303078;1921;2078;98416;75;-59;-5;-9;-10;17080
2304079;1418;1910;98010;67;-62;-2;-9;-10;17080
2305079;2280;1982;97914;64;-59;-2;-9;-10;17080
2306075;2591;1982;97962;64;-54;-2;-10;-10;17080
2307080;2280;1839;98010;64;-51;-2;-10;-9;17080
2308091;2639;1671;98177;56;-54;0;-10;-9;17080
2309076;2471;1982;98631;51;-59;0;-10;-9;17080
2310077;2017;2365;98941;51;-62;-2;-10;-9;17080
2311078;1562;1982;98774;51;-62;-5;-10;-9;17080
2312078;1610;1934;98464;51;-59;-5;-10;-9;17080
2313079;2328;2198;98511;56;-57;-5;-10;-9;17080
2314079;2328;1767;98464;61;-57;-5;-10;-9;17080
2315075;2160;1767;98296;61;-64;-2;-10;-9;17080
2316075;2375;1695;98535;61;-72;0;-10;-9;17080
2317077;2064;1551;98965;61;-78;2;-10;-9;17080
2318076;1753;1862;98846;61;-83;2;-11;-9;17080
2319089;1705;1743;98034;61;-86;0;-11;-9;17080
2320079;1634;1815;98010;64;-83;0;-11;-9;17080
2321080;1897;1886;98535;67;-78;0;-11;-9;17080
2322075;2663;1910;98511;72;-75;2;-11;-9;17080
2323076;2519;2054;98344;72;-80;5;-11;-9;17080
2324076;2304;2222;98225;72;-80;7;-11;-10;17080
2325078;2328;2389;98058;75;-80;5;-11;-10;17080
2326078;1347;2054;98249;77;-80;2;-11;-10;17080
2327079;1370;1815;98559;77;-83;0;-11;-10;17080
2328080;2399;1839;98559;77;-80;-2;-11;-10;17080
2329075;2567;2054;98392;77;-80;-2;-11;-10;17080
2330093;2734;2078;98320;80;-83;-5;-11;-10;17080
2331077;2519;1575;98559;85;-83;-2;-11;-10;17080
2332079;1993;1839;98607;85;-78;2;-10;-10;17080
2333079;2040;2150;98010;83;-75;7;-10;-10;17080
2334075;2280;1910;97819;83;-72;10;-10;-10;17080
2335075;2208;1791;98177;85;-70;10;-10;-10;17080
2336076;2017;1815;98798;85;-72;7;-10;-10;17080
2337076;1969;1671;98822;85;-75;7;-10;-10;17080
2338078;2256;1599;98058;83;-75;5;-10;-10;17080
2339079;1993;1815;97556;77;-78;5;-10;-10;17080
2340075;1945;2006;97651;72;-80;5;-10;-11;17080
2341091;2088;1886;98368;69;-80;7;-10;-11;17080
2342076;2088;1719;98941;67;-86;15;-10;-11;17080
2343078;2423;1886;98440;69;-91;21;-10;-11;17080
2344079;2256;1839;97819;69;-94;21;-10;-11;17080
2345075;1873;1743;97986;67;-94;21;-10;-11;17080
2346075;1634;1862;98201;61;-88;18;-10;-11;17080
2347077;1921;2150;98273;59;-83;15;-10;-11;17081
2348078;1705;2102;98296;61;-75;13;-10;-11;17081
2349080;1634;1958;98225;61;-72;13;-10;-12;17081
2350075;1801;2222;98464;64;-64;18;-11;-12;17081
2351077;1897;2006;98798;67;-62;21;-11;-11;17081
2352093;2567;1910;98607;75;-59;21;-11;-11;17081
2353093;2399;2054;98034;77;-64;15;-11;-11;17081
2354077;1921;2150;97938;77;-70;13;-11;-11;17081
2355079;1682;1719;98488;77;-70;10;-10;-11;17081
2356080;1658;1599;98440;83;-67;10;-10;-11;17081
2357075;2017;1934;98296;88;-67;13;-10;-11;17081
2358080;2040;1934;98344;88;-72;13;-10;-11;17082
2359075;2017;1958;98416;88;-78;10;-10;-11;17082
2360075;1969;1886;98559;83;-78;2;-10;-11;17082
2361076;2208;1886;98058;80;-72;2;-10;-12;17082
2362076;2591;1958;97532;77;-67;5;-10;-12;17082
2363089;2017;2102;97890;77;-64;7;-10;-11;17082
2364080;1323;1982;98559;75;-62;5;-10;-11;17082
2365075;1825;2102;98918;69;-64;2;-10;-11;17082
2366076;2088;2293;98774;64;-67;2;-10;-11;17082
2367076;2208;2054;98201;64;-67;2;-10;-11;17082
2368077;2423;1743;97651;69;-62;-2;-10;-11;17082
2369078;2136;2078;97914;69;-57;-5;-10;-11;17082
2370079;2208;2461;98535;67;-57;-5;-10;-11;17082
2371079;1921;2341;98368;67;-51;-8;-10;-11;17082
2372075;1729;2198;97938;64;-49;-10;-10;-11;17082
2373158;1777;1839;98058;64;-51;-10;-10;-11;17082
2374078;2112;2030;98535;61;-57;-13;-10;-11;17081
2375079;2447;2245;98416;64;-59;-13;-10;-11;17081
2376080;2112;2006;97914;67;-64;-13;-10;-11;17081
2377080;2232;1982;97723;67;-70;-13;-10;-11;17081
2378076;2064;1815;98296;64;-72;-16;-10;-11;17081
2379076;2040;2102;98918;59;-67;-18;-10;-11;17081
2380077;2232;2245;98703;56;-67;-18;-10;-11;17081
2381077;1825;2030;98344;59;-67;-18;-10;-11;17081
2382079;1777;2054;98129;54;-72;-18;-10;-11;17081
2383079;1849;1695;98081;54;-75;-18;-11;-11;17081
2384090;1705;1695;98320;56;-72;-16;-11;-11;17081
2385075;1634;1862;98273;61;-67;-13;-11;-11;17080
2386076;1514;1719;98201;61;-67;-8;-11;-11;17080
2387077;1777;2245;98703;64;-70;-2;-11;-11;17080
2388077;1801;2437;98941;69;-67;-2;-11;-11;17080
2389078;1993;2245;98607;69;-64;-2;-11;-10;17080
2390078;2256;2102;98105;75;-62;-5;-11;-10;17080
2391079;1945;1886;97866;77;-70;-2;-11;-10;17080
2392079;2112;2030;97890;75;-78;-2;-11;-10;17080
2393075;2088;2198;98153;72;-78;-2;-11;-10;17080
2394090;1969;2174;98153;72;-70;-2;-11;-10;17080
2395075;2040;2006;98273;72;-70;2;-11;-10;17080
2396075;2017;1791;98392;69;-75;7;-11;-10;17080
2397076;2328;1862;98034;69;-78;7;-11;-10;17080
2398077;2280;1958;98153;72;-78;2;-11;-10;17080
2399078;2136;1886;98177;75;-72;-5;-10;-11;17080
2400078;1729;2006;98153;75;-67;-8;-10;-10;17080
2401079;1562;2102;98392;69;-64;-2;-10;-10;17080
2402079;1945;2198;98368;67;-64;2;-10;-10;17080
2403075;1849;2078;98655;69;-64;5;-10;-10;17080
2404155;1634;1934;98941;75;-64;2;-10;-10;17080
2405076;1777;2054;98368;77;-67;-2;-10;-10;17080
2406077;2064;1862;98105;83;-70;-5;-10;-10;17080
2407078;2160;1791;98320;88;-72;-2;-10;-10;17080
2408075;2112;1982;98488;91;-67;-2;-10;-10;17080
2409076;2088;1982;98726;88;-64;-2;-10;-10;17080
2410077;2352;2269;98488;85;-62;-5;-10;-10;17080
2411079;2184;2317;97962;83;-62;-8;-10;-10;17080
2412075;2495;2317;97866;80;-67;-13;-10;-10;17080
2413076;2447;2317;98105;75;-72;-10;-10;-10;17080
2414154;1897;1743;98058;69;-78;-5;-10;-10;17080
2415075;2160;1767;98225;64;-80;-5;-10;-10;17080
2416076;2088;2245;98296;61;-80;-5;-10;-10;17080
2417078;2040;2365;98344;61;-83;-2;-10;-10;17080
2418078;1849;2413;98941;59;-86;2;-10;-10;17080
2419079;1801;2341;98726;56;-91;5;-10;-10;17080
2420080;2423;2150;98320;54;-94;0;-10;-11;17080
2421076;2064;2126;98201;54;-96;0;-10;-11;17080
2422078;1873;2078;98081;61;-94;2;-10;-11;17080
2423079;1801;2341;98655;69;-88;2;-10;-11;17080
2424078;1251;2485;99013;67;-88;5;-10;-11;17080
2425089;1394;2461;98607;64;-88;5;-10;-11;17080
2426079;1538;2461;98081;64;-83;2;-10;-11;17080
2427080;1682;2054;97962;64;-80;0;-10;-11;17080
2428080;2256;1575;98177;61;-83;2;-10;-11;17080
2429076;2375;1671;98392;61;-91;5;-10;-11;17080
2430075;2064;2150;98511;64;-91;7;-10;-11;17080
2431077;1873;2389;98344;64;-88;7;-10;-12;17080
2432077;1394;2365;98511;64;-86;7;-10;-12;17080
2433078;1634;2245;99013;69;-86;7;-10;-12;17080
2434078;2160;2389;98488;75;-91;5;-10;-12;17080
2435088;1921;2461;97436;77;-94;7;-10;-12;17080
2436079;2136;2126;97628;75;-94;10;-10;-12;17080
2437079;1945;1839;98225;72;-91;15;-10;-12;17080
2438080;1658;2222;98559;72;-88;15;-10;-12;17080
2439075;2184;2772;98488;72;-88;13;-10;-12;17081
2440076;2017;2820;98105;69;-88;13;-10;-12;17081
2441076;1729;2413;98129;61;-91;7;-10;-12;17081
2442077;2112;2317;98058;61;-91;5;-10;-12;17081
2443077;2064;2198;97604;64;-94;10;-10;-13;17081
2444079;2040;2078;97413;64;-91;13;-10;-13;17081
2445079;2017;2485;98058;67;-86;10;-10;-13;17081
2446093;2064;2605;98798;67;-83;2;-10;-13;17081
2447078;1705;2222;98726;67;-80;-5;-10;-13;17081
2448078;1658;2054;98153;69;-75;-8;-10;-13;17081
2449080;2088;2317;97795;72;-75;-5;-10;-13;17081
2450079;1729;2245;97484;75;-78;-2;-10;-13;17081
2451075;2447;2078;97699;77;-75;-2;-10;-13;17081
2452076;2758;2006;98344;75;-70;-8;-10;-13;17081
2453078;2328;2102;98535;69;-67;-13;-10;-13;17081
2454077;2399;2485;98488;64;-70;-13;-9;-13;17081
2455079;1921;2365;98344;64;-72;-10;-9;-13;17081
2456079;1394;2006;98177;67;-78;-8;-9;-13;17081
2457080;2064;2174;98201;67;-78;-8;-9;-13;17080
2458088;2184;2269;97986;64;-83;-8;-9;-13;17080
2459077;2304;2389;97747;61;-83;-10;-9;-13;17080
2460079;2543;2605;97747;61;-80;-13;-10;-13;17080
2461078;2112;2581;98655;56;-78;-16;-10;-13;17080
2462080;1825;2724;99467;54;-72;-16;-10;-13;17080
2463080;1275;2413;98822;51;-72;-10;-10;-13;17080
2464076;1394;2054;97890;56;-72;-5;-10;-13;17080
2465076;1801;2245;97651;59;-72;-2;-10;-13;17080
2466077;1921;2317;98081;64;-70;-2;-10;-13;17080
2467077;2304;2341;98488;69;-64;0;-10;-13;17080
2468079;2447;2437;98607;72;-62;0;-10;-13;17080
2469091;1849;2509;98201;72;-64;-2;-10;-13;17080
2470076;1418;2413;98129;72;-62;0;-10;-13;17080
2471077;1179;1958;98559;67;-64;-2;-10;-12;17080
2472078;1442;1791;98416;61;-62;-2;-10;-12;17080
2473080;2232;2413;98129;59;-62;-2;-10;-12;17080
2474075;2112;2581;98105;59;-62;2;-10;-12;17080
2475077;1682;2150;98583;61;-57;2;-10;-12;17080
2476077;1753;2269;99252;59;-51;2;-10;-12;17080
2477079;1634;2413;99133;61;-49;5;-10;-12;17080
2478079;1634;2389;98153;61;-57;5;-10;-12;17080
2479075;1921;2413;97460;61;-62;5;-10;-12;17080
2480090;1729;2222;98249;64;-59;5;-10;-11;17080
2481080;2064;2222;99109;69;-54;7;-10;-11;17080
2482076;2352;2461;98965;72;-54;10;-10;-11;17080
2483077;2304;2676;98511;69;-51;7;-10;-11;17080
2484079;1945;2533;98392;64;-49;5;-10;-11;17080
2485079;1251;2078;98392;59;-49;5;-10;-11;17080
2486076;1921;1527;98392;59;-54;2;-10;-11;17080
2487076;2136;1503;98464;61;-59;0;-10;-10;17080
2488077;1993;1886;98344;64;-64;0;-10;-10;17080
2489077;2734;2006;98583;67;-64;2;-10;-10;17080
2490156;2399;2102;98918;69;-64;2;-10;-10;17080
2491077;1490;2293;98750;67;-64;2;-9;-10;17080
2492078;1514;2389;98201;67;-70;0;-9;-10;17080
2493079;1801;2126;98273;69;-78;2;-9;-10;17080
2494079;1777;2006;98177;69;-80;2;-9;-10;17080
2495080;2017;2269;98105;67;-80;0;-9;-10;17080
2496080;2399;2293;98416;59;-78;-2;-9;-10;17080
2497075;2543;2078;98129;56;-80;-2;-9;-10;17080
2498075;2567;2174;98416;54;-83;2;-10;-10;17080
2499076;1658;2293;98750;56;-83;5;-10;-10;17080
2500076;1036;2006;98703;61;-80;7;-10;-10;17080
2501093;1849;1910;98559;72;-75;7;-10;-10;17080
2502078;1801;1958;98153;77;-72;10;-10;-10;17080
2503079;1969;2030;98010;77;-70;10;-10;-10;17081
2504079;2639;2006;98225;72;-67;7;-9;-10;17081
2505080;2017;2030;98511;69;-70;2;-9;-10;17081
2506080;1562;2341;98368;69;-78;0;-9;-10;17081
2507076;1586;2509;97914;67;-86;2;-9;-10;17081
2508076;1825;2461;97986;64;-86;2;-9;-10;17081
2509077;2304;2341;98249;61;-83;2;-9;-10;17081
2510077;2328;2054;97914;64;-80;-2;-9;-10;17081
2511078;2184;1815;97675;67;-80;-5;-9;-11;17081
2512092;2567;1958;98344;67;-80;-5;-9;-11;17081
2513077;2256;2078;98965;64;-83;-2;-9;-11;17081
2514078;2208;1982;98607;61;-86;-2;-10;-11;17081
2515078;1969;1934;98010;61;-88;0;-10;-11;17081
2516080;1418;1982;97890;59;-91;0;-10;-11;17081
2517079;2495;1815;98153;59;-86;0;-10;-11;17081
2518075;2878;1886;98703;64;-83;0;-10;-11;17081
2519075;2663;2174;98655;72;-80;2;-10;-11;17081
2520076;2160;2030;98177;75;-80;2;-10;-11;17081
2521076;1490;1839;98010;72;-80;0;-10;-11;17081
2522153;1777;1886;98153;72;-75;-2;-10;-11;17081
2523079;2040;2222;98368;69;-72;-5;-10;-11;17081
2524080;2519;2317;98010;72;-72;-5;-10;-11;17080
2525075;2423;2269;97890;75;-72;-2;-10;-11;17080
2526075;2328;2150;98488;77;-72;5;-10;-11;17080
2527076;2136;1695;98774;75;-72;7;-10;-11;17081
2528077;1705;1862;98607;72;-70;2;-10;-11;17081
2529078;1538;2150;98129;69;-70;0;-10;-11;17081
2530078;1155;2006;97604;67;-75;0;-10;-11;17081
2531079;1873;2006;98010;67;-80;0;-10;-11;17081
2532080;2639;1934;98559;72;-83;-2;-10;-11;17081
2533089;2591;1767;98440;77;-83;-8;-10;-12;17081
2534078;2304;1862;97938;75;-86;-8;-10;-12;17080
2535080;1729;1767;98081;72;-88;-10;-10;-12;17080
2536075;1682;2030;98320;69;-88;-8;-10;-12;17080
2537076;1658;2437;98177;75;-86;-8;-10;-12;17080
2538077;1370;2437;98105;75;-78;-2;-9;-12;17080
2539078;2088;2269;98153;72;-70;2;-9;-12;17080
2540079;2232;2078;98464;67;-70;0;-9;-12;17080
2541075;2328;1839;98583;64;-70;-5;-10;-12;17080
2542076;2663;1743;98344;61;-70;-5;-10;-12;17080
2543178;2232;2245;98034;56;-70;-2;-10;-12;17080
2544077;1897;2030;98488;51;-62;-2;-10;-12;17080
2545077;1849;1982;98535;54;-57;-2;-10;-12;17080
2546079;2304;2509;98129;61;-57;-2;-10;-12;17080
2547079;2304;2341;98201;67;-59;-5;-10;-12;17080
2548076;2280;1791;98559;75;-57;-5;-10;-12;17080
2549076;2423;1575;99109;83;-49;-8;-10;-12;17080
2550078;2112;1839;98703;88;-51;-5;-10;-11;17080
2551079;1705;2030;97795;91;-59;-5;-10;-11;17080
2552075;1586;2174;97866;93;-62;-5;-10;-11;17080
2553076;1993;2126;98416;93;-59;-8;-9;-11;17080
2554077;2399;1934;98392;88;-57;-8;-9;-11;17080
2555092;2974;2198;98249;83;-57;-5;-9;-11;17080
2556075;2926;2437;97843;80;-54;-5;-9;-11;17080
2557077;2017;2078;97938;75;-51;0;-9;-11;17080
2558077;1849;1743;98989;69;-51;2;-9;-11;17080
2559078;2232;1767;99085;64;-51;5;-9;-11;17080
2560078;2208;2222;98440;61;-54;10;-9;-11;17080
2561079;1729;2150;97938;61;-54;7;-9;-11;17080
2562080;1753;1575;98177;64;-51;5;-9;-10;17080
